Subject Block Blocks Trial CorrResp Fan Length NewFoilLong NewFoilShort Other PairType acc Probe.RESP Probe.RT ProbeCode Trials.Sample Word1 Word1_Freq Word1_Imag Word2 Word2_Freq Word2_Imag cooc lenW1 lenW2 lenPair Pair
4 1 1 1 j 1 Long NA NA 10 Target 1 j 1355 3 1 PATIENT 86 526 NECKLACE 3 606 0 7 8 15 PATIENT-NECKLACE
4 1 1 2 j 1 Short NA NA 5 Target 1 j 1034 2 2 TRAIL 31 525 STEEL 45 534 1 5 5 10 TRAIL-STEEL
4 1 1 3 j 2 Long NA NA 29 Target 1 j 1179 5 3 GRAMMAR 4 392 MONSOON 3 498 0 7 7 14 GRAMMAR-MONSOON
4 1 1 4 k 1 Long 32 NA NA NewFoil 1 k 1279 11 4 LEATHER 24 586 NONSENSE 13 349 2 7 8 15 LEATHER-NONSENSE
4 1 1 5 j 1 Long NA NA 16 Target 1 j 928 3 5 FOREHEAD 16 596 WELCOME 50 470 1 8 7 15 FOREHEAD-WELCOME
4 1 1 6 k 2 Short NA NA 54 RPFoil 1 k 2332 8 6 KNOB 2 554 JELLY 3 590 0 4 5 9 KNOB-JELLY
4 1 1 7 k 1 Long NA NA 46 RPFoil 1 k 1382 7 7 MEDICINE 30 551 FLANNEL 4 520 0 8 7 15 MEDICINE-FLANNEL
4 1 1 8 j 2 Long NA NA 26 Target 1 j 1165 5 8 DISTRESS 15 443 PACKAGE 20 529 0 8 7 15 DISTRESS-PACKAGE
4 1 1 9 j 1 Short NA NA 7 Target 1 j 908 2 9 BERRY 9 551 ALIEN 16 470 0 5 5 10 BERRY-ALIEN
4 1 1 10 k 1 Long 14 NA NA NewFoil 1 k 1086 11 10 FORTUNE 25 459 PRINCESS 10 547 21 7 8 15 FORTUNE-PRINCESS
4 1 1 11 k 1 Long 90 NA NA NewFoil 1 k 1454 11 11 OPENING 83 462 PEASANT 7 540 0 7 7 14 OPENING-PEASANT
4 1 1 12 k 2 Short NA NA 51 RPFoil 1 k 1319 8 12 GATE 37 545 CRIME 34 471 1 4 5 9 GATE-CRIME
4 1 1 13 k 1 Short NA 62 NA NewFoil 1 k 996 10 13 METAL 61 541 DRILL 33 571 0 5 5 10 METAL-DRILL
4 1 1 14 k 1 Long NA NA 47 RPFoil 1 k 3381 7 14 FOUNTAIN 18 602 HYGIENE 3 459 0 8 7 15 FOUNTAIN-HYGIENE
4 1 1 15 k 2 Long NA NA 58 RPFoil 1 k 1258 9 15 DISTRESS 15 443 MONSOON 3 498 0 8 7 15 DISTRESS-MONSOON
4 1 1 16 j 2 Long NA NA 25 Target 1 j 1899 5 16 GRAMMAR 4 392 WHISTLE 4 574 0 7 7 14 GRAMMAR-WHISTLE
4 1 1 17 k 1 Short NA 33 NA NewFoil 1 k 950 10 17 ZERO 24 483 DENT 2 486 0 4 4 8 ZERO-DENT
4 1 1 18 k 1 Long 75 NA NA NewFoil 1 k 1149 11 18 FIFTEEN 56 491 PORTION 62 399 0 7 7 14 FIFTEEN-PORTION
4 1 1 19 k 2 Long NA NA 63 RPFoil 1 k 1227 9 19 SPEAKER 49 549 PACKAGE 20 529 0 7 7 14 SPEAKER-PACKAGE
4 1 1 20 j 1 Long NA NA 12 Target 1 j 935 3 20 EXPRESS 42 456 HYGIENE 3 459 0 7 7 14 EXPRESS-HYGIENE
4 1 1 21 j 2 Short NA NA 24 Target 1 j 2611 4 21 SINK 23 599 FLESH 52 567 0 4 5 9 SINK-FLESH
4 1 1 22 k 2 Long NA NA 61 RPFoil 1 k 989 9 22 GRAMMAR 4 392 HIGHWAY 40 581 0 7 7 14 GRAMMAR-HIGHWAY
4 1 1 23 j 1 Short NA NA 2 Target 1 j 909 2 23 MATCH 41 490 ACRE 9 464 0 5 4 9 MATCH-ACRE
4 1 1 24 k 2 Short NA NA 56 RPFoil 1 k 2300 8 24 SINK 23 599 WOOL 10 586 0 4 4 8 SINK-WOOL
4 1 1 25 k 1 Long 10 NA NA NewFoil 1 k 903 11 25 CAPSULE 5 594 HATCHET 4 527 0 7 7 14 CAPSULE-HATCHET
4 1 1 26 k 2 Short NA NA 53 RPFoil 1 k 1558 8 26 FATE 33 343 JELLY 3 590 2 4 5 9 FATE-JELLY
4 1 1 27 k 2 Long NA NA 60 RPFoil 1 k 1232 9 27 SLUMBER 3 500 WHISTLE 4 574 0 7 7 14 SLUMBER-WHISTLE
4 1 1 28 j 2 Short NA NA 20 Target 1 j 1303 4 28 SINK 23 599 JELLY 3 590 0 4 5 9 SINK-JELLY
4 1 1 29 k 1 Long NA NA 45 RPFoil 1 k 1124 7 29 COLONEL 37 552 NECKLACE 3 606 0 7 8 15 COLONEL-NECKLACE
4 1 1 30 j 1 Short NA NA 1 Target 1 j 1727 2 30 FUSE 5 479 DAIRY 19 537 0 4 5 9 FUSE-DAIRY
4 1 1 31 j 1 Long NA NA 15 Target 1 j 896 3 31 FOUNTAIN 18 602 FLANNEL 4 520 0 8 7 15 FOUNTAIN-FLANNEL
4 1 1 32 j 2 Short NA NA 21 Target 1 j 21 4 32 FATE 33 343 WOOL 10 586 0 4 4 8 FATE-WOOL
4 1 1 33 k 2 Short NA NA 55 RPFoil 0 j 1060 8 33 GATE 37 545 FLESH 52 567 5 4 5 9 GATE-FLESH
4 1 1 34 j 2 Short NA NA 22 Target 1 j 1141 4 34 KNOB 2 554 CRIME 34 471 0 4 5 9 KNOB-CRIME
4 1 1 35 j 2 Long NA NA 32 Target 1 j 1419 5 35 SLUMBER 3 500 PACKAGE 20 529 0 7 7 14 SLUMBER-PACKAGE
4 1 1 36 j 1 Short NA NA 8 Target 1 j 839 2 36 SWAMP 5 600 RANCH 27 519 0 5 5 10 SWAMP-RANCH
4 1 1 37 k 1 Short NA NA 40 RPFoil 1 k 972 6 37 SWAMP 5 600 ALIEN 16 470 0 5 5 10 SWAMP-ALIEN
4 1 1 38 j 2 Short NA NA 18 Target 1 j 1598 4 38 KNOB 2 554 FLESH 52 567 0 4 5 9 KNOB-FLESH
4 1 1 39 j 1 Short NA NA 3 Target 1 j 884 2 39 THUMB 10 599 ADULT 25 526 0 5 5 10 THUMB-ADULT
4 1 1 40 k 1 Long NA NA 48 RPFoil 1 k 1041 7 40 FOREHEAD 16 596 SPINACH 2 606 0 8 7 15 FOREHEAD-SPINACH
4 1 1 41 k 2 Long NA NA 64 RPFoil 1 k 1370 9 41 SLUMBER 3 500 MONSOON 3 498 0 7 7 14 SLUMBER-MONSOON
4 1 1 42 j 2 Short NA NA 23 Target 1 j 1161 4 42 GATE 37 545 JELLY 3 590 1 4 5 9 GATE-JELLY
4 1 1 43 k 2 Long NA NA 62 RPFoil 1 k 1017 9 43 DISTRESS 15 443 HIGHWAY 40 581 0 8 7 15 DISTRESS-HIGHWAY
4 1 1 44 k 1 Long NA NA 41 RPFoil 1 k 1159 7 44 TRUMPET 7 628 TREASON 6 363 0 7 7 14 TRUMPET-TREASON
4 1 1 45 k 1 Long 85 NA NA NewFoil 1 k 836 11 45 DISPUTE 34 421 STADIUM 25 586 0 7 7 14 DISPUTE-STADIUM
4 1 1 46 k 2 Short NA NA 52 RPFoil 1 k 1103 8 46 SINK 23 599 CRIME 34 471 0 4 5 9 SINK-CRIME
4 1 1 47 k 1 Short NA 18 NA NewFoil 1 k 712 10 47 HAWK 14 591 BEAM 21 539 1 4 4 8 HAWK-BEAM
4 1 1 48 k 2 Long NA NA 57 RPFoil 1 k 1132 9 48 GRAMMAR 4 392 PACKAGE 20 529 0 7 7 14 GRAMMAR-PACKAGE
4 1 1 49 k 2 Short NA NA 49 RPFoil 1 k 818 8 49 FATE 33 343 FLESH 52 567 3 4 5 9 FATE-FLESH
4 1 1 50 k 1 Short NA 3 NA NewFoil 1 k 788 10 50 TRUNK 8 529 GRAPH 17 535 0 5 5 10 TRUNK-GRAPH
4 1 1 51 j 2 Long NA NA 27 Target 1 j 1020 5 51 SPEAKER 49 549 MONSOON 3 498 0 7 7 14 SPEAKER-MONSOON
4 1 1 52 k 1 Long 17 NA NA NewFoil 1 k 727 11 52 ENTRANCE 57 493 MEASLES 2 582 0 8 7 15 ENTRANCE-MEASLES
4 1 1 53 j 1 Long NA NA 14 Target 1 j 1432 3 53 MEDICINE 30 551 PASTURE 14 562 0 8 7 15 MEDICINE-PASTURE
4 1 1 54 k 1 Short NA 9 NA NewFoil 1 k 669 10 54 OVEN 7 599 CAST 45 483 4 4 4 8 OVEN-CAST
4 1 1 55 k 1 Short NA NA 36 RPFoil 1 k 833 6 55 BUMP 5 476 STEEL 45 534 0 4 5 9 BUMP-STEEL
4 1 1 56 k 1 Short NA NA 38 RPFoil 1 k 1266 6 56 PALM 22 555 ACRE 9 464 0 4 4 8 PALM-ACRE
4 1 1 57 j 1 Long NA NA 13 Target 1 j 1806 3 57 COLONEL 37 552 SPINACH 2 606 0 7 7 14 COLONEL-SPINACH
4 1 1 58 j 2 Short NA NA 19 Target 1 j 1596 4 58 GATE 37 545 WOOL 10 586 2 4 4 8 GATE-WOOL
4 1 1 59 j 2 Long NA NA 28 Target 1 j 1163 5 59 SLUMBER 3 500 HIGHWAY 40 581 0 7 7 14 SLUMBER-HIGHWAY
4 1 1 60 k 1 Short NA NA 33 RPFoil 1 k 921 6 60 FUSE 5 479 ADULT 25 526 0 4 5 9 FUSE-ADULT
4 1 1 61 j 1 Long NA NA 9 Target 1 j 897 3 61 TRUMPET 7 628 JUNCTION 7 502 0 7 8 15 TRUMPET-JUNCTION
4 1 1 62 k 2 Short NA NA 50 RPFoil 1 k 1196 8 62 KNOB 2 554 WOOL 10 586 0 4 4 8 KNOB-WOOL
4 1 1 63 k 1 Short NA NA 39 RPFoil 1 k 869 6 63 BERRY 9 551 CIGAR 10 619 0 5 5 10 BERRY-CIGAR
4 1 1 64 j 1 Short NA NA 6 Target 1 j 760 2 64 PALM 22 555 DESK 65 574 0 4 4 8 PALM-DESK
4 1 1 65 k 1 Short NA 84 NA NewFoil 1 k 711 10 65 HOOK 5 541 COIN 10 603 1 4 4 8 HOOK-COIN
4 1 1 66 k 2 Long NA NA 59 RPFoil 1 k 1924 9 66 SPEAKER 49 549 WHISTLE 4 574 0 7 7 14 SPEAKER-WHISTLE
4 1 1 67 j 2 Short NA NA 17 Target 1 j 1005 4 67 FATE 33 343 CRIME 34 471 3 4 5 9 FATE-CRIME
4 1 1 68 k 1 Short NA NA 34 RPFoil 1 k 865 6 68 MATCH 41 490 DESK 65 574 1 5 4 9 MATCH-DESK
4 1 1 69 j 1 Short NA NA 4 Target 1 j 899 2 69 BUMP 5 476 CIGAR 10 619 0 4 5 9 BUMP-CIGAR
4 1 1 70 k 1 Long NA NA 43 RPFoil 1 k 2499 7 70 NURSERY 13 542 PASTURE 14 562 4 7 7 14 NURSERY-PASTURE
4 1 1 71 j 2 Long NA NA 31 Target 1 j 991 5 71 SPEAKER 49 549 HIGHWAY 40 581 0 7 7 14 SPEAKER-HIGHWAY
4 1 1 72 k 1 Long NA NA 44 RPFoil 1 k 1299 7 72 EXPRESS 42 456 JUNCTION 7 502 0 7 8 15 EXPRESS-JUNCTION
4 1 1 73 k 1 Short NA NA 37 RPFoil 1 k 903 6 73 TRAIL 31 525 RANCH 27 519 0 5 5 10 TRAIL-RANCH
4 1 1 74 k 1 Long NA NA 42 RPFoil 1 k 807 7 74 PATIENT 86 526 WELCOME 50 470 9 7 7 14 PATIENT-WELCOME
4 1 1 75 j 2 Long NA NA 30 Target 1 j 1026 5 75 DISTRESS 15 443 WHISTLE 4 574 1 8 7 15 DISTRESS-WHISTLE
4 1 1 76 j 1 Long NA NA 11 Target 1 j 1129 3 76 NURSERY 13 542 TREASON 6 363 0 7 7 14 NURSERY-TREASON
4 1 1 77 k 1 Short NA NA 35 RPFoil 1 k 1052 6 77 THUMB 10 599 DAIRY 19 537 0 5 5 10 THUMB-DAIRY
4 1 1 78 k 1 Short NA 10 NA NewFoil 1 k 624 10 78 TOOL 40 538 INCH 40 497 0 4 4 8 TOOL-INCH
4 1 1 79 k 1 Long 2 NA NA NewFoil 1 k 706 11 79 TRACTOR 24 585 EMBRACE 13 597 0 7 7 14 TRACTOR-EMBRACE
4 1 1 80 k 1 Short NA 19 NA NewFoil 1 k 651 10 80 PIANO 38 630 LEMON 18 632 0 5 5 10 PIANO-LEMON
4 2 1 1 k 1 Long NA NA 46 RPFoil 1 k 1436 7 81 MEDICINE 30 551 FLANNEL 4 520 0 8 7 15 MEDICINE-FLANNEL
4 2 1 2 j 1 Short NA NA 5 Target 1 j 804 2 82 TRAIL 31 525 STEEL 45 534 1 5 5 10 TRAIL-STEEL
4 2 1 3 j 2 Long NA NA 29 Target 1 j 752 5 83 GRAMMAR 4 392 MONSOON 3 498 0 7 7 14 GRAMMAR-MONSOON
4 2 1 4 k 1 Short NA 5 NA NewFoil 1 k 598 10 84 GLOVE 9 596 IRON 43 561 2 5 4 9 GLOVE-IRON
4 2 1 5 k 1 Long NA NA 48 RPFoil 1 k 998 7 85 FOREHEAD 16 596 SPINACH 2 606 0 8 7 15 FOREHEAD-SPINACH
4 2 1 6 k 1 Long 69 NA NA NewFoil 1 k 729 11 86 EXTREME 62 332 SETTLER 3 528 0 7 7 14 EXTREME-SETTLER
4 2 1 7 k 1 Short NA NA 36 RPFoil 1 k 745 6 87 BUMP 5 476 STEEL 45 534 0 4 5 9 BUMP-STEEL
4 2 1 8 k 2 Long NA NA 57 RPFoil 1 k 1326 9 88 GRAMMAR 4 392 PACKAGE 20 529 0 7 7 14 GRAMMAR-PACKAGE
4 2 1 9 k 2 Long NA NA 59 RPFoil 1 k 1368 9 89 SPEAKER 49 549 WHISTLE 4 574 0 7 7 14 SPEAKER-WHISTLE
4 2 1 10 k 1 Short NA 73 NA NewFoil 1 k 740 10 90 SPARK 12 539 BLIND 47 485 0 5 5 10 SPARK-BLIND
4 2 1 11 k 1 Short NA 57 NA NewFoil 1 k 597 10 91 COMET 2 521 STEAK 10 647 0 5 5 10 COMET-STEAK
4 2 1 12 k 1 Long NA NA 43 RPFoil 1 k 1095 7 92 NURSERY 13 542 PASTURE 14 562 4 7 7 14 NURSERY-PASTURE
4 2 1 13 j 2 Long NA NA 27 Target 1 j 910 5 93 SPEAKER 49 549 MONSOON 3 498 0 7 7 14 SPEAKER-MONSOON
4 2 1 14 j 2 Short NA NA 24 Target 1 j 733 4 94 SINK 23 599 FLESH 52 567 0 4 5 9 SINK-FLESH
4 2 1 15 j 2 Short NA NA 20 Target 1 j 698 4 95 SINK 23 599 JELLY 3 590 0 4 5 9 SINK-JELLY
4 2 1 16 k 1 Short NA NA 33 RPFoil 1 k 1415 6 96 FUSE 5 479 ADULT 25 526 0 4 5 9 FUSE-ADULT
4 2 1 17 k 1 Long 77 NA NA NewFoil 1 k 691 11 97 BALLOON 10 583 LANTERN 13 575 0 7 7 14 BALLOON-LANTERN
4 2 1 18 k 2 Short NA NA 51 RPFoil 1 k 978 8 98 GATE 37 545 CRIME 34 471 1 4 5 9 GATE-CRIME
4 2 1 19 k 2 Long NA NA 62 RPFoil 1 k 1045 9 99 DISTRESS 15 443 HIGHWAY 40 581 0 8 7 15 DISTRESS-HIGHWAY
4 2 1 20 k 1 Long 19 NA NA NewFoil 1 k 783 11 100 PROFILE 15 572 TORTOISE 3 539 0 7 8 15 PROFILE-TORTOISE
4 2 1 21 j 2 Short NA NA 22 Target 1 j 1015 4 101 KNOB 2 554 CRIME 34 471 0 4 5 9 KNOB-CRIME
4 2 1 22 j 1 Short NA NA 1 Target 1 j 668 2 102 FUSE 5 479 DAIRY 19 537 0 4 5 9 FUSE-DAIRY
4 2 1 23 k 2 Short NA NA 49 RPFoil 1 k 1348 8 103 FATE 33 343 FLESH 52 567 3 4 5 9 FATE-FLESH
4 2 1 24 k 1 Long NA NA 47 RPFoil 1 k 1184 7 104 FOUNTAIN 18 602 HYGIENE 3 459 0 8 7 15 FOUNTAIN-HYGIENE
4 2 1 25 k 1 Short NA 88 NA NewFoil 1 k 676 10 105 HORN 31 566 GOLD 52 594 13 4 4 8 HORN-GOLD
4 2 1 26 k 1 Long NA NA 45 RPFoil 1 k 1055 7 106 COLONEL 37 552 NECKLACE 3 606 0 7 8 15 COLONEL-NECKLACE
4 2 1 27 j 2 Short NA NA 19 Target 1 j 1285 4 107 GATE 37 545 WOOL 10 586 2 4 4 8 GATE-WOOL
4 2 1 28 k 1 Short NA NA 39 RPFoil 1 k 940 6 108 BERRY 9 551 CIGAR 10 619 0 5 5 10 BERRY-CIGAR
4 2 1 29 j 2 Long NA NA 30 Target 1 j 1417 5 109 DISTRESS 15 443 WHISTLE 4 574 1 8 7 15 DISTRESS-WHISTLE
4 2 1 30 j 1 Short NA NA 4 Target 0 k 840 2 110 BUMP 5 476 CIGAR 10 619 0 4 5 9 BUMP-CIGAR
4 2 1 31 k 1 Long NA NA 41 RPFoil 1 k 1081 7 111 TRUMPET 7 628 TREASON 6 363 0 7 7 14 TRUMPET-TREASON
4 2 1 32 j 1 Long NA NA 11 Target 1 j 769 3 112 NURSERY 13 542 TREASON 6 363 0 7 7 14 NURSERY-TREASON
4 2 1 33 j 1 Short NA NA 3 Target 1 j 848 2 113 THUMB 10 599 ADULT 25 526 0 5 5 10 THUMB-ADULT
4 2 1 34 k 1 Long NA NA 44 RPFoil 1 k 1700 7 114 EXPRESS 42 456 JUNCTION 7 502 0 7 8 15 EXPRESS-JUNCTION
4 2 1 35 k 1 Short NA NA 35 RPFoil 1 k 1139 6 115 THUMB 10 599 DAIRY 19 537 0 5 5 10 THUMB-DAIRY
4 2 1 36 k 2 Long NA NA 60 RPFoil 1 k 1225 9 116 SLUMBER 3 500 WHISTLE 4 574 0 7 7 14 SLUMBER-WHISTLE
4 2 1 37 k 1 Short NA 92 NA NewFoil 1 k 678 10 117 HOBBY 4 494 CABLE 7 469 0 5 5 10 HOBBY-CABLE
4 2 1 38 j 1 Long NA NA 10 Target 1 j 778 3 118 PATIENT 86 526 NECKLACE 3 606 0 7 8 15 PATIENT-NECKLACE
4 2 1 39 j 1 Short NA NA 8 Target 1 j 753 2 119 SWAMP 5 600 RANCH 27 519 0 5 5 10 SWAMP-RANCH
4 2 1 40 k 2 Short NA NA 55 RPFoil 0 j 1397 8 120 GATE 37 545 FLESH 52 567 5 4 5 9 GATE-FLESH
4 2 1 41 k 2 Short NA NA 56 RPFoil 1 k 957 8 121 SINK 23 599 WOOL 10 586 0 4 4 8 SINK-WOOL
4 2 1 42 k 1 Short NA 81 NA NewFoil 1 k 719 10 122 CAPE 20 566 BATON 10 516 0 4 5 9 CAPE-BATON
4 2 1 43 j 1 Short NA NA 2 Target 1 j 740 2 123 MATCH 41 490 ACRE 9 464 0 5 4 9 MATCH-ACRE
4 2 1 44 j 2 Long NA NA 28 Target 1 j 1136 5 124 SLUMBER 3 500 HIGHWAY 40 581 0 7 7 14 SLUMBER-HIGHWAY
4 2 1 45 k 1 Short NA 8 NA NewFoil 1 k 651 10 125 CROWN 19 602 WORM 4 578 1 5 4 9 CROWN-WORM
4 2 1 46 j 2 Long NA NA 25 Target 1 j 941 5 126 GRAMMAR 4 392 WHISTLE 4 574 0 7 7 14 GRAMMAR-WHISTLE
4 2 1 47 j 2 Short NA NA 23 Target 1 j 813 4 127 GATE 37 545 JELLY 3 590 1 4 5 9 GATE-JELLY
4 2 1 48 j 1 Long NA NA 16 Target 1 j 893 3 128 FOREHEAD 16 596 WELCOME 50 470 1 8 7 15 FOREHEAD-WELCOME
4 2 1 49 k 1 Long 59 NA NA NewFoil 1 k 770 11 129 INCLINE 4 429 MERCHANT 20 472 0 7 8 15 INCLINE-MERCHANT
4 2 1 50 k 2 Short NA NA 53 RPFoil 0 j 974 8 130 FATE 33 343 JELLY 3 590 2 4 5 9 FATE-JELLY
4 2 1 51 k 1 Short NA 86 NA NewFoil 1 k 603 10 131 COUCH 12 536 SHIRT 27 612 0 5 5 10 COUCH-SHIRT
4 2 1 52 j 2 Long NA NA 32 Target 1 j 1099 5 132 SLUMBER 3 500 PACKAGE 20 529 0 7 7 14 SLUMBER-PACKAGE
4 2 1 53 j 2 Short NA NA 18 Target 1 j 1832 4 133 KNOB 2 554 FLESH 52 567 0 4 5 9 KNOB-FLESH
4 2 1 54 k 2 Long NA NA 63 RPFoil 1 k 1244 9 134 SPEAKER 49 549 PACKAGE 20 529 0 7 7 14 SPEAKER-PACKAGE
4 2 1 55 j 1 Long NA NA 14 Target 1 j 1030 3 135 MEDICINE 30 551 PASTURE 14 562 0 8 7 15 MEDICINE-PASTURE
4 2 1 56 k 2 Long NA NA 64 RPFoil 1 k 1231 9 136 SLUMBER 3 500 MONSOON 3 498 0 7 7 14 SLUMBER-MONSOON
4 2 1 57 k 1 Short NA NA 34 RPFoil 1 k 851 6 137 MATCH 41 490 DESK 65 574 1 5 4 9 MATCH-DESK
4 2 1 58 k 1 Short NA NA 38 RPFoil 1 k 928 6 138 PALM 22 555 ACRE 9 464 0 4 4 8 PALM-ACRE
4 2 1 59 j 2 Short NA NA 17 Target 1 j 1231 4 139 FATE 33 343 CRIME 34 471 3 4 5 9 FATE-CRIME
4 2 1 60 k 1 Long 25 NA NA NewFoil 1 k 705 11 140 SHOULDER 61 577 RETREAT 14 408 1 8 7 15 SHOULDER-RETREAT
4 2 1 61 k 2 Short NA NA 54 RPFoil 1 k 1163 8 141 KNOB 2 554 JELLY 3 590 0 4 5 9 KNOB-JELLY
4 2 1 62 j 2 Long NA NA 26 Target 1 j 1323 5 142 DISTRESS 15 443 PACKAGE 20 529 0 8 7 15 DISTRESS-PACKAGE
4 2 1 63 k 1 Long 15 NA NA NewFoil 1 k 675 11 143 RESPONSE 77 348 THINKER 6 405 0 8 7 15 RESPONSE-THINKER
4 2 1 64 k 2 Long NA NA 61 RPFoil 1 k 1496 9 144 GRAMMAR 4 392 HIGHWAY 40 581 0 7 7 14 GRAMMAR-HIGHWAY
4 2 1 65 j 1 Short NA NA 6 Target 1 j 750 2 145 PALM 22 555 DESK 65 574 0 4 4 8 PALM-DESK
4 2 1 66 j 2 Long NA NA 31 Target 1 j 962 5 146 SPEAKER 49 549 HIGHWAY 40 581 0 7 7 14 SPEAKER-HIGHWAY
4 2 1 67 j 1 Long NA NA 13 Target 1 j 796 3 147 COLONEL 37 552 SPINACH 2 606 0 7 7 14 COLONEL-SPINACH
4 2 1 68 k 2 Short NA NA 52 RPFoil 1 k 958 8 148 SINK 23 599 CRIME 34 471 0 4 5 9 SINK-CRIME
4 2 1 69 k 1 Short NA NA 40 RPFoil 1 k 801 6 149 SWAMP 5 600 ALIEN 16 470 0 5 5 10 SWAMP-ALIEN
4 2 1 70 j 1 Long NA NA 9 Target 1 j 715 3 150 TRUMPET 7 628 JUNCTION 7 502 0 7 8 15 TRUMPET-JUNCTION
4 2 1 71 j 2 Short NA NA 21 Target 1 j 1075 4 151 FATE 33 343 WOOL 10 586 0 4 4 8 FATE-WOOL
4 2 1 72 k 2 Long NA NA 58 RPFoil 1 k 1201 9 152 DISTRESS 15 443 MONSOON 3 498 0 8 7 15 DISTRESS-MONSOON
4 2 1 73 k 1 Long 37 NA NA NewFoil 1 k 793 11 153 CONTRACT 60 457 TRAITOR 2 447 0 8 7 15 CONTRACT-TRAITOR
4 2 1 74 j 1 Long NA NA 15 Target 1 j 821 3 154 FOUNTAIN 18 602 FLANNEL 4 520 0 8 7 15 FOUNTAIN-FLANNEL
4 2 1 75 k 1 Long NA NA 42 RPFoil 1 k 856 7 155 PATIENT 86 526 WELCOME 50 470 9 7 7 14 PATIENT-WELCOME
4 2 1 76 k 1 Short NA NA 37 RPFoil 1 k 847 6 156 TRAIL 31 525 RANCH 27 519 0 5 5 10 TRAIL-RANCH
4 2 1 77 k 2 Short NA NA 50 RPFoil 1 k 824 8 157 KNOB 2 554 WOOL 10 586 0 4 4 8 KNOB-WOOL
4 2 1 78 j 1 Short NA NA 7 Target 0 k 704 2 158 BERRY 9 551 ALIEN 16 470 0 5 5 10 BERRY-ALIEN
4 2 1 79 k 1 Long 73 NA NA NewFoil 1 k 699 11 159 TOURIST 16 577 PRODUCT 87 435 0 7 7 14 TOURIST-PRODUCT
4 2 1 80 j 1 Long NA NA 12 Target 1 j 769 3 160 EXPRESS 42 456 HYGIENE 3 459 0 7 7 14 EXPRESS-HYGIENE
4 3 1 1 j 1 Short NA NA 6 Target 1 j 784 2 161 PALM 22 555 DESK 65 574 0 4 4 8 PALM-DESK
4 3 1 2 j 1 Short NA NA 5 Target 1 j 735 2 162 TRAIL 31 525 STEEL 45 534 1 5 5 10 TRAIL-STEEL
4 3 1 3 k 2 Short NA NA 52 RPFoil 1 k 841 8 163 SINK 23 599 CRIME 34 471 0 4 5 9 SINK-CRIME
4 3 1 4 k 1 Short NA NA 40 RPFoil 1 k 775 6 164 SWAMP 5 600 ALIEN 16 470 0 5 5 10 SWAMP-ALIEN
4 3 1 5 k 1 Short NA NA 36 RPFoil 1 k 802 6 165 BUMP 5 476 STEEL 45 534 0 4 5 9 BUMP-STEEL
4 3 1 6 j 1 Long NA NA 11 Target 1 j 904 3 166 NURSERY 13 542 TREASON 6 363 0 7 7 14 NURSERY-TREASON
4 3 1 7 k 2 Long NA NA 62 RPFoil 1 k 1021 9 167 DISTRESS 15 443 HIGHWAY 40 581 0 8 7 15 DISTRESS-HIGHWAY
4 3 1 8 k 1 Long NA NA 43 RPFoil 1 k 817 7 168 NURSERY 13 542 PASTURE 14 562 4 7 7 14 NURSERY-PASTURE
4 3 1 9 k 1 Short NA 46 NA NewFoil 1 k 662 10 169 SWORD 7 597 CLOWN 3 589 0 5 5 10 SWORD-CLOWN
4 3 1 10 k 1 Short NA 87 NA NewFoil 1 k 1109 10 170 PEDAL 4 556 FAIRY 4 536 0 5 5 10 PEDAL-FAIRY
4 3 1 11 j 2 Long NA NA 28 Target 1 j 1090 5 171 SLUMBER 3 500 HIGHWAY 40 581 0 7 7 14 SLUMBER-HIGHWAY
4 3 1 12 j 2 Short NA NA 17 Target 1 j 1179 4 172 FATE 33 343 CRIME 34 471 3 4 5 9 FATE-CRIME
4 3 1 13 k 1 Long NA NA 44 RPFoil 1 k 901 7 173 EXPRESS 42 456 JUNCTION 7 502 0 7 8 15 EXPRESS-JUNCTION
4 3 1 14 k 1 Short NA NA 39 RPFoil 1 k 833 6 174 BERRY 9 551 CIGAR 10 619 0 5 5 10 BERRY-CIGAR
4 3 1 15 k 2 Long NA NA 59 RPFoil 1 k 1356 9 175 SPEAKER 49 549 WHISTLE 4 574 0 7 7 14 SPEAKER-WHISTLE
4 3 1 16 k 1 Long 13 NA NA NewFoil 1 k 809 11 176 TWILIGHT 4 588 DREAMER 2 507 0 8 7 15 TWILIGHT-DREAMER
4 3 1 17 k 2 Short NA NA 49 RPFoil 1 k 1032 8 177 FATE 33 343 FLESH 52 567 3 4 5 9 FATE-FLESH
4 3 1 18 k 1 Long NA NA 41 RPFoil 1 k 956 7 178 TRUMPET 7 628 TREASON 6 363 0 7 7 14 TRUMPET-TREASON
4 3 1 19 k 1 Short NA NA 33 RPFoil 1 k 800 6 179 FUSE 5 479 ADULT 25 526 0 4 5 9 FUSE-ADULT
4 3 1 20 k 2 Long NA NA 63 RPFoil 1 k 1120 9 180 SPEAKER 49 549 PACKAGE 20 529 0 7 7 14 SPEAKER-PACKAGE
4 3 1 21 k 2 Long NA NA 61 RPFoil 1 k 1507 9 181 GRAMMAR 4 392 HIGHWAY 40 581 0 7 7 14 GRAMMAR-HIGHWAY
4 3 1 22 k 1 Long NA NA 42 RPFoil 1 k 746 7 182 PATIENT 86 526 WELCOME 50 470 9 7 7 14 PATIENT-WELCOME
4 3 1 23 j 2 Long NA NA 26 Target 0 k 1182 5 183 DISTRESS 15 443 PACKAGE 20 529 0 8 7 15 DISTRESS-PACKAGE
4 3 1 24 k 2 Short NA NA 56 RPFoil 1 k 772 8 184 SINK 23 599 WOOL 10 586 0 4 4 8 SINK-WOOL
4 3 1 25 k 2 Long NA NA 64 RPFoil 1 k 1281 9 185 SLUMBER 3 500 MONSOON 3 498 0 7 7 14 SLUMBER-MONSOON
4 3 1 26 j 2 Long NA NA 25 Target 1 j 820 5 186 GRAMMAR 4 392 WHISTLE 4 574 0 7 7 14 GRAMMAR-WHISTLE
4 3 1 27 j 1 Short NA NA 7 Target 1 j 754 2 187 BERRY 9 551 ALIEN 16 470 0 5 5 10 BERRY-ALIEN
4 3 1 28 j 2 Short NA NA 18 Target 1 j 1046 4 188 KNOB 2 554 FLESH 52 567 0 4 5 9 KNOB-FLESH
4 3 1 29 k 1 Short NA 52 NA NewFoil 1 k 661 10 189 SUIT 48 536 SEWER 10 538 0 4 5 9 SUIT-SEWER
4 3 1 30 k 2 Short NA NA 55 RPFoil 1 k 1393 8 190 GATE 37 545 FLESH 52 567 5 4 5 9 GATE-FLESH
4 3 1 31 k 1 Long 62 NA NA NewFoil 1 k 761 11 191 COSTUME 10 538 TRIUMPH 22 470 0 7 7 14 COSTUME-TRIUMPH
4 3 1 32 j 1 Long NA NA 16 Target 1 j 780 3 192 FOREHEAD 16 596 WELCOME 50 470 1 8 7 15 FOREHEAD-WELCOME
4 3 1 33 j 1 Short NA NA 2 Target 1 j 815 2 193 MATCH 41 490 ACRE 9 464 0 5 4 9 MATCH-ACRE
4 3 1 34 j 1 Short NA NA 8 Target 1 j 779 2 194 SWAMP 5 600 RANCH 27 519 0 5 5 10 SWAMP-RANCH
4 3 1 35 k 1 Long NA NA 48 RPFoil 0 j 777 7 195 FOREHEAD 16 596 SPINACH 2 606 0 8 7 15 FOREHEAD-SPINACH
4 3 1 36 j 2 Long NA NA 30 Target 1 j 769 5 196 DISTRESS 15 443 WHISTLE 4 574 1 8 7 15 DISTRESS-WHISTLE
4 3 1 37 j 2 Long NA NA 32 Target 1 j 1277 5 197 SLUMBER 3 500 PACKAGE 20 529 0 7 7 14 SLUMBER-PACKAGE
4 3 1 38 k 2 Short NA NA 53 RPFoil 1 k 1579 8 198 FATE 33 343 JELLY 3 590 2 4 5 9 FATE-JELLY
4 3 1 39 k 1 Long 11 NA NA NewFoil 1 k 812 11 199 DESPAIR 21 388 BEDROOM 52 629 0 7 7 14 DESPAIR-BEDROOM
4 3 1 40 k 1 Long 53 NA NA NewFoil 1 k 773 11 200 PROTEST 23 472 CONQUEST 9 422 0 7 8 15 PROTEST-CONQUEST
4 3 1 41 k 1 Short NA NA 34 RPFoil 1 k 773 6 201 MATCH 41 490 DESK 65 574 1 5 4 9 MATCH-DESK
4 3 1 42 k 1 Long 20 NA NA NewFoil 1 k 735 11 202 MISSILE 48 602 PRESTIGE 29 394 0 7 8 15 MISSILE-PRESTIGE
4 3 1 43 j 1 Long NA NA 13 Target 1 j 680 3 203 COLONEL 37 552 SPINACH 2 606 0 7 7 14 COLONEL-SPINACH
4 3 1 44 k 1 Long 5 NA NA NewFoil 1 k 652 11 204 MIDNIGHT 23 602 CHANNEL 16 508 0 8 7 15 MIDNIGHT-CHANNEL
4 3 1 45 j 2 Short NA NA 24 Target 1 j 1056 4 205 SINK 23 599 FLESH 52 567 0 4 5 9 SINK-FLESH
4 3 1 46 k 1 Short NA 51 NA NewFoil 1 k 742 10 206 BENCH 35 555 BURN 15 541 0 5 4 9 BENCH-BURN
4 3 1 47 k 2 Short NA NA 51 RPFoil 1 k 1324 8 207 GATE 37 545 CRIME 34 471 1 4 5 9 GATE-CRIME
4 3 1 48 k 2 Short NA NA 54 RPFoil 1 k 1409 8 208 KNOB 2 554 JELLY 3 590 0 4 5 9 KNOB-JELLY
4 3 1 49 j 2 Short NA NA 23 Target 1 j 879 4 209 GATE 37 545 JELLY 3 590 1 4 5 9 GATE-JELLY
4 3 1 50 k 2 Short NA NA 50 RPFoil 1 k 1219 8 210 KNOB 2 554 WOOL 10 586 0 4 4 8 KNOB-WOOL
4 3 1 51 k 1 Long NA NA 47 RPFoil 1 k 987 7 211 FOUNTAIN 18 602 HYGIENE 3 459 0 8 7 15 FOUNTAIN-HYGIENE
4 3 1 52 j 2 Short NA NA 22 Target 1 j 994 4 212 KNOB 2 554 CRIME 34 471 0 4 5 9 KNOB-CRIME
4 3 1 53 k 1 Short NA NA 38 RPFoil 1 k 875 6 213 PALM 22 555 ACRE 9 464 0 4 4 8 PALM-ACRE
4 3 1 54 k 2 Long NA NA 60 RPFoil 1 k 931 9 214 SLUMBER 3 500 WHISTLE 4 574 0 7 7 14 SLUMBER-WHISTLE
4 3 1 55 j 1 Short NA NA 1 Target 1 j 980 2 215 FUSE 5 479 DAIRY 19 537 0 4 5 9 FUSE-DAIRY
4 3 1 56 k 1 Long 3 NA NA NewFoil 1 k 793 11 216 QUARREL 20 479 ANTIQUE 12 549 0 7 7 14 QUARREL-ANTIQUE
4 3 1 57 k 1 Short NA 28 NA NewFoil 1 k 725 10 217 BADGE 5 519 MALL 3 383 0 5 4 9 BADGE-MALL
4 3 1 58 j 2 Long NA NA 27 Target 1 j 893 5 218 SPEAKER 49 549 MONSOON 3 498 0 7 7 14 SPEAKER-MONSOON
4 3 1 59 k 1 Short NA 14 NA NewFoil 1 k 727 10 219 TANK 12 563 GRAPE 3 591 0 4 5 9 TANK-GRAPE
4 3 1 60 k 1 Long NA NA 46 RPFoil 1 k 1144 7 220 MEDICINE 30 551 FLANNEL 4 520 0 8 7 15 MEDICINE-FLANNEL
4 3 1 61 k 1 Short NA 72 NA NewFoil 1 k 694 10 221 ROPE 15 596 NAIL 6 588 1 4 4 8 ROPE-NAIL
4 3 1 62 j 2 Short NA NA 21 Target 1 j 1123 4 222 FATE 33 343 WOOL 10 586 0 4 4 8 FATE-WOOL
4 3 1 63 j 1 Short NA NA 4 Target 1 j 940 2 223 BUMP 5 476 CIGAR 10 619 0 4 5 9 BUMP-CIGAR
4 3 1 64 k 2 Long NA NA 58 RPFoil 1 k 1287 9 224 DISTRESS 15 443 MONSOON 3 498 0 8 7 15 DISTRESS-MONSOON
4 3 1 65 j 1 Long NA NA 10 Target 1 j 835 3 225 PATIENT 86 526 NECKLACE 3 606 0 7 8 15 PATIENT-NECKLACE
4 3 1 66 k 1 Short NA 99 NA NewFoil 1 k 658 10 226 CREAM 20 557 BOWL 23 579 4 5 4 9 CREAM-BOWL
4 3 1 67 j 1 Long NA NA 12 Target 1 j 963 3 227 EXPRESS 42 456 HYGIENE 3 459 0 7 7 14 EXPRESS-HYGIENE
4 3 1 68 k 1 Long 104 NA NA NewFoil 1 k 746 11 228 WEATHER 69 537 PLATFORM 72 529 3 7 8 15 WEATHER-PLATFORM
4 3 1 69 k 1 Long NA NA 45 RPFoil 1 k 925 7 229 COLONEL 37 552 NECKLACE 3 606 0 7 8 15 COLONEL-NECKLACE
4 3 1 70 j 1 Long NA NA 15 Target 1 j 1023 3 230 FOUNTAIN 18 602 FLANNEL 4 520 0 8 7 15 FOUNTAIN-FLANNEL
4 3 1 71 j 2 Long NA NA 29 Target 1 j 924 5 231 GRAMMAR 4 392 MONSOON 3 498 0 7 7 14 GRAMMAR-MONSOON
4 3 1 72 k 2 Long NA NA 57 RPFoil 1 k 1985 9 232 GRAMMAR 4 392 PACKAGE 20 529 0 7 7 14 GRAMMAR-PACKAGE
4 3 1 73 j 1 Long NA NA 14 Target 1 j 862 3 233 MEDICINE 30 551 PASTURE 14 562 0 8 7 15 MEDICINE-PASTURE
4 3 1 74 j 1 Short NA NA 3 Target 1 j 846 2 234 THUMB 10 599 ADULT 25 526 0 5 5 10 THUMB-ADULT
4 3 1 75 k 1 Short NA NA 37 RPFoil 1 k 837 6 235 TRAIL 31 525 RANCH 27 519 0 5 5 10 TRAIL-RANCH
4 3 1 76 k 1 Short NA NA 35 RPFoil 1 k 904 6 236 THUMB 10 599 DAIRY 19 537 0 5 5 10 THUMB-DAIRY
4 3 1 77 j 2 Long NA NA 31 Target 1 j 1192 5 237 SPEAKER 49 549 HIGHWAY 40 581 0 7 7 14 SPEAKER-HIGHWAY
4 3 1 78 j 1 Long NA NA 9 Target 1 j 742 3 238 TRUMPET 7 628 JUNCTION 7 502 0 7 8 15 TRUMPET-JUNCTION
4 3 1 79 j 2 Short NA NA 19 Target 1 j 1295 4 239 GATE 37 545 WOOL 10 586 2 4 4 8 GATE-WOOL
4 3 1 80 j 2 Short NA NA 20 Target 1 j 1014 4 240 SINK 23 599 JELLY 3 590 0 4 5 9 SINK-JELLY
4 4 1 1 k 1 Short NA 23 NA NewFoil 1 k 694 10 241 CONE 13 559 ATOM 37 499 0 4 4 8 CONE-ATOM
4 4 1 2 j 2 Long NA NA 25 Target 1 j 752 5 242 GRAMMAR 4 392 WHISTLE 4 574 0 7 7 14 GRAMMAR-WHISTLE
4 4 1 3 k 2 Short NA NA 52 RPFoil 1 k 1546 8 243 SINK 23 599 CRIME 34 471 0 4 5 9 SINK-CRIME
4 4 1 4 j 2 Short NA NA 22 Target 1 j 1144 4 244 KNOB 2 554 CRIME 34 471 0 4 5 9 KNOB-CRIME
4 4 1 5 k 2 Short NA NA 55 RPFoil 1 k 1250 8 245 GATE 37 545 FLESH 52 567 5 4 5 9 GATE-FLESH
4 4 1 6 j 2 Short NA NA 21 Target 1 j 970 4 246 FATE 33 343 WOOL 10 586 0 4 4 8 FATE-WOOL
4 4 1 7 k 2 Long NA NA 61 RPFoil 1 k 1178 9 247 GRAMMAR 4 392 HIGHWAY 40 581 0 7 7 14 GRAMMAR-HIGHWAY
4 4 1 8 k 2 Long NA NA 64 RPFoil 1 k 1031 9 248 SLUMBER 3 500 MONSOON 3 498 0 7 7 14 SLUMBER-MONSOON
4 4 1 9 k 1 Short NA NA 34 RPFoil 1 k 873 6 249 MATCH 41 490 DESK 65 574 1 5 4 9 MATCH-DESK
4 4 1 10 k 1 Short NA NA 36 RPFoil 1 k 915 6 250 BUMP 5 476 STEEL 45 534 0 4 5 9 BUMP-STEEL
4 4 1 11 k 1 Long NA NA 44 RPFoil 1 k 861 7 251 EXPRESS 42 456 JUNCTION 7 502 0 7 8 15 EXPRESS-JUNCTION
4 4 1 12 k 1 Short NA 45 NA NewFoil 1 k 791 10 252 CAGE 9 585 CREW 36 486 2 4 4 8 CAGE-CREW
4 4 1 13 k 1 Short NA NA 39 RPFoil 1 k 846 6 253 BERRY 9 551 CIGAR 10 619 0 5 5 10 BERRY-CIGAR
4 4 1 14 k 2 Long NA NA 62 RPFoil 1 k 934 9 254 DISTRESS 15 443 HIGHWAY 40 581 0 8 7 15 DISTRESS-HIGHWAY
4 4 1 15 k 1 Long 78 NA NA NewFoil 1 k 713 11 255 HERRING 2 524 CIRCUIT 23 472 0 7 7 14 HERRING-CIRCUIT
4 4 1 16 k 1 Long NA NA 41 RPFoil 1 k 711 7 256 TRUMPET 7 628 TREASON 6 363 0 7 7 14 TRUMPET-TREASON
4 4 1 17 k 1 Long NA NA 42 RPFoil 1 k 722 7 257 PATIENT 86 526 WELCOME 50 470 9 7 7 14 PATIENT-WELCOME
4 4 1 18 k 1 Short NA NA 38 RPFoil 1 k 741 6 258 PALM 22 555 ACRE 9 464 0 4 4 8 PALM-ACRE
4 4 1 19 j 2 Long NA NA 27 Target 1 j 1265 5 259 SPEAKER 49 549 MONSOON 3 498 0 7 7 14 SPEAKER-MONSOON
4 4 1 20 j 2 Long NA NA 30 Target 1 j 932 5 260 DISTRESS 15 443 WHISTLE 4 574 1 8 7 15 DISTRESS-WHISTLE
4 4 1 21 j 1 Long NA NA 16 Target 1 j 786 3 261 FOREHEAD 16 596 WELCOME 50 470 1 8 7 15 FOREHEAD-WELCOME
4 4 1 22 j 2 Long NA NA 31 Target 1 j 829 5 262 SPEAKER 49 549 HIGHWAY 40 581 0 7 7 14 SPEAKER-HIGHWAY
4 4 1 23 j 2 Short NA NA 17 Target 1 j 1090 4 263 FATE 33 343 CRIME 34 471 3 4 5 9 FATE-CRIME
4 4 1 24 k 1 Long 31 NA NA NewFoil 1 k 711 11 264 WELFARE 53 362 ATHLETE 9 591 0 7 7 14 WELFARE-ATHLETE
4 4 1 25 j 1 Long NA NA 15 Target 1 j 806 3 265 FOUNTAIN 18 602 FLANNEL 4 520 0 8 7 15 FOUNTAIN-FLANNEL
4 4 1 26 j 2 Short NA NA 18 Target 1 j 761 4 266 KNOB 2 554 FLESH 52 567 0 4 5 9 KNOB-FLESH
4 4 1 27 j 1 Short NA NA 7 Target 1 j 727 2 267 BERRY 9 551 ALIEN 16 470 0 5 5 10 BERRY-ALIEN
4 4 1 28 k 2 Short NA NA 54 RPFoil 0 j 957 8 268 KNOB 2 554 JELLY 3 590 0 4 5 9 KNOB-JELLY
4 4 1 29 k 1 Short NA 74 NA NewFoil 1 k 740 10 269 HOSE 9 572 GOAT 6 585 0 4 4 8 HOSE-GOAT
4 4 1 30 k 2 Long NA NA 57 RPFoil 1 k 1118 9 270 GRAMMAR 4 392 PACKAGE 20 529 0 7 7 14 GRAMMAR-PACKAGE
4 4 1 31 k 1 Long 76 NA NA NewFoil 1 k 719 11 271 PHYSICS 22 425 RECRUIT 10 412 0 7 7 14 PHYSICS-RECRUIT
4 4 1 32 k 2 Long NA NA 58 RPFoil 1 k 1087 9 272 DISTRESS 15 443 MONSOON 3 498 0 8 7 15 DISTRESS-MONSOON
4 4 1 33 k 1 Short NA 54 NA NewFoil 1 k 1237 10 273 SCAR 10 565 BOND 46 380 0 4 4 8 SCAR-BOND
4 4 1 34 j 2 Long NA NA 26 Target 0 k 1018 5 274 DISTRESS 15 443 PACKAGE 20 529 0 8 7 15 DISTRESS-PACKAGE
4 4 1 35 k 2 Short NA NA 53 RPFoil 0 j 1374 8 275 FATE 33 343 JELLY 3 590 2 4 5 9 FATE-JELLY
4 4 1 36 j 1 Short NA NA 2 Target 1 j 1010 2 276 MATCH 41 490 ACRE 9 464 0 5 4 9 MATCH-ACRE
4 4 1 37 j 1 Short NA NA 1 Target 1 j 717 2 277 FUSE 5 479 DAIRY 19 537 0 4 5 9 FUSE-DAIRY
4 4 1 38 j 1 Long NA NA 10 Target 1 j 695 3 278 PATIENT 86 526 NECKLACE 3 606 0 7 8 15 PATIENT-NECKLACE
4 4 1 39 k 1 Short NA NA 37 RPFoil 1 k 894 6 279 TRAIL 31 525 RANCH 27 519 0 5 5 10 TRAIL-RANCH
4 4 1 40 j 2 Short NA NA 19 Target 1 j 1113 4 280 GATE 37 545 WOOL 10 586 2 4 4 8 GATE-WOOL
4 4 1 41 k 1 Short NA 32 NA NewFoil 1 k 638 10 281 PAGE 66 555 LOOP 21 492 0 4 4 8 PAGE-LOOP
4 4 1 42 j 1 Short NA NA 3 Target 1 j 668 2 282 THUMB 10 599 ADULT 25 526 0 5 5 10 THUMB-ADULT
4 4 1 43 k 2 Long NA NA 63 RPFoil 1 k 1148 9 283 SPEAKER 49 549 PACKAGE 20 529 0 7 7 14 SPEAKER-PACKAGE
4 4 1 44 j 1 Long NA NA 9 Target 1 j 689 3 284 TRUMPET 7 628 JUNCTION 7 502 0 7 8 15 TRUMPET-JUNCTION
4 4 1 45 k 1 Long 103 NA NA NewFoil 1 k 600 11 285 CREATURE 15 492 COMRADE 4 515 3 8 7 15 CREATURE-COMRADE
4 4 1 46 j 2 Short NA NA 23 Target 1 j 4284 4 286 GATE 37 545 JELLY 3 590 1 4 5 9 GATE-JELLY
4 4 1 47 j 1 Short NA NA 6 Target 1 j 1609 2 287 PALM 22 555 DESK 65 574 0 4 4 8 PALM-DESK
4 4 1 48 k 1 Long 98 NA NA NewFoil 1 k 729 11 288 PROMISE 45 320 SUSPECT 30 377 3 7 7 14 PROMISE-SUSPECT
4 4 1 49 j 1 Short NA NA 4 Target 1 j 828 2 289 BUMP 5 476 CIGAR 10 619 0 4 5 9 BUMP-CIGAR
4 4 1 50 j 2 Long NA NA 29 Target 1 j 986 5 290 GRAMMAR 4 392 MONSOON 3 498 0 7 7 14 GRAMMAR-MONSOON
4 4 1 51 k 1 Long 72 NA NA NewFoil 1 k 711 11 291 CRYSTAL 23 579 SOLDIER 39 578 0 7 7 14 CRYSTAL-SOLDIER
4 4 1 52 k 1 Short NA NA 40 RPFoil 1 k 936 6 292 SWAMP 5 600 ALIEN 16 470 0 5 5 10 SWAMP-ALIEN
4 4 1 53 j 2 Long NA NA 32 Target 1 j 1105 5 293 SLUMBER 3 500 PACKAGE 20 529 0 7 7 14 SLUMBER-PACKAGE
4 4 1 54 k 1 Long NA NA 45 RPFoil 1 k 949 7 294 COLONEL 37 552 NECKLACE 3 606 0 7 8 15 COLONEL-NECKLACE
4 4 1 55 k 1 Long 26 NA NA NewFoil 1 k 627 11 295 CHESTNUT 5 602 COMMAND 72 366 0 8 7 15 CHESTNUT-COMMAND
4 4 1 56 k 1 Short NA NA 35 RPFoil 1 k 834 6 296 THUMB 10 599 DAIRY 19 537 0 5 5 10 THUMB-DAIRY
4 4 1 57 k 1 Short NA NA 33 RPFoil 1 k 762 6 297 FUSE 5 479 ADULT 25 526 0 4 5 9 FUSE-ADULT
4 4 1 58 j 2 Short NA NA 24 Target 1 j 843 4 298 SINK 23 599 FLESH 52 567 0 4 5 9 SINK-FLESH
4 4 1 59 k 1 Long 79 NA NA NewFoil 1 k 756 11 299 ASSAULT 15 481 TRAILER 11 587 0 7 7 14 ASSAULT-TRAILER
4 4 1 60 j 2 Long NA NA 28 Target 1 j 1241 5 300 SLUMBER 3 500 HIGHWAY 40 581 0 7 7 14 SLUMBER-HIGHWAY
4 4 1 61 j 1 Long NA NA 12 Target 1 j 757 3 301 EXPRESS 42 456 HYGIENE 3 459 0 7 7 14 EXPRESS-HYGIENE
4 4 1 62 k 2 Short NA NA 49 RPFoil 1 k 39 8 302 FATE 33 343 FLESH 52 567 3 4 5 9 FATE-FLESH
4 4 1 63 j 1 Long NA NA 11 Target 1 j 1163 3 303 NURSERY 13 542 TREASON 6 363 0 7 7 14 NURSERY-TREASON
4 4 1 64 k 1 Short NA 30 NA NewFoil 1 k 620 10 304 GERM 3 442 CHEST 53 556 0 4 5 9 GERM-CHEST
4 4 1 65 k 2 Short NA NA 51 RPFoil 1 k 1253 8 305 GATE 37 545 CRIME 34 471 1 4 5 9 GATE-CRIME
4 4 1 66 j 1 Long NA NA 13 Target 1 j 687 3 306 COLONEL 37 552 SPINACH 2 606 0 7 7 14 COLONEL-SPINACH
4 4 1 67 k 2 Long NA NA 60 RPFoil 1 k 1298 9 307 SLUMBER 3 500 WHISTLE 4 574 0 7 7 14 SLUMBER-WHISTLE
4 4 1 68 k 1 Short NA 98 NA NewFoil 1 k 680 10 308 POND 25 599 EAGLE 5 601 0 4 5 9 POND-EAGLE
4 4 1 69 k 1 Short NA 75 NA NewFoil 1 k 700 10 309 SIGN 94 534 ZONE 11 432 0 4 4 8 SIGN-ZONE
4 4 1 70 j 1 Short NA NA 5 Target 1 j 765 2 310 TRAIL 31 525 STEEL 45 534 1 5 5 10 TRAIL-STEEL
4 4 1 71 k 1 Long NA NA 46 RPFoil 1 k 940 7 311 MEDICINE 30 551 FLANNEL 4 520 0 8 7 15 MEDICINE-FLANNEL
4 4 1 72 k 1 Long NA NA 48 RPFoil 1 k 825 7 312 FOREHEAD 16 596 SPINACH 2 606 0 8 7 15 FOREHEAD-SPINACH
4 4 1 73 k 2 Short NA NA 56 RPFoil 1 k 1431 8 313 SINK 23 599 WOOL 10 586 0 4 4 8 SINK-WOOL
4 4 1 74 j 1 Long NA NA 14 Target 1 j 792 3 314 MEDICINE 30 551 PASTURE 14 562 0 8 7 15 MEDICINE-PASTURE
4 4 1 75 j 1 Short NA NA 8 Target 1 j 876 2 315 SWAMP 5 600 RANCH 27 519 0 5 5 10 SWAMP-RANCH
4 4 1 76 k 1 Long NA NA 43 RPFoil 0 j 950 7 316 NURSERY 13 542 PASTURE 14 562 4 7 7 14 NURSERY-PASTURE
4 4 1 77 k 2 Long NA NA 59 RPFoil 1 k 1813 9 317 SPEAKER 49 549 WHISTLE 4 574 0 7 7 14 SPEAKER-WHISTLE
4 4 1 78 k 2 Short NA NA 50 RPFoil 1 k 843 8 318 KNOB 2 554 WOOL 10 586 0 4 4 8 KNOB-WOOL
4 4 1 79 j 2 Short NA NA 20 Target 1 j 912 4 319 SINK 23 599 JELLY 3 590 0 4 5 9 SINK-JELLY
4 4 1 80 k 1 Long NA NA 47 RPFoil 1 k 1028 7 320 FOUNTAIN 18 602 HYGIENE 3 459 0 8 7 15 FOUNTAIN-HYGIENE
4 5 1 1 k 1 Short NA 6 NA NewFoil 1 k 702 10 321 VAULT 2 550 SKIRT 21 573 0 5 5 10 VAULT-SKIRT
4 5 1 2 j 1 Short NA NA 4 Target 1 j 700 2 322 BUMP 5 476 CIGAR 10 619 0 4 5 9 BUMP-CIGAR
4 5 1 3 k 1 Long 99 NA NA NewFoil 1 k 627 11 323 PERFECT 58 404 STEEPLE 9 559 0 7 7 14 PERFECT-STEEPLE
4 5 1 4 k 1 Long NA NA 42 RPFoil 1 k 947 7 324 PATIENT 86 526 WELCOME 50 470 9 7 7 14 PATIENT-WELCOME
4 5 1 5 j 2 Short NA NA 22 Target 1 j 1182 4 325 KNOB 2 554 CRIME 34 471 0 4 5 9 KNOB-CRIME
4 5 1 6 k 1 Long 66 NA NA NewFoil 1 k 662 11 326 TROLLEY 5 585 PHANTOM 2 499 0 7 7 14 TROLLEY-PHANTOM
4 5 1 7 k 1 Long 54 NA NA NewFoil 1 k 606 11 327 MIXTURE 30 433 SUNSHINE 8 655 2 7 8 15 MIXTURE-SUNSHINE
4 5 1 8 k 2 Long NA NA 63 RPFoil 1 k 1435 9 328 SPEAKER 49 549 PACKAGE 20 529 0 7 7 14 SPEAKER-PACKAGE
4 5 1 9 j 1 Short NA NA 5 Target 1 j 844 2 329 TRAIL 31 525 STEEL 45 534 1 5 5 10 TRAIL-STEEL
4 5 1 10 j 2 Long NA NA 26 Target 1 j 869 5 330 DISTRESS 15 443 PACKAGE 20 529 0 8 7 15 DISTRESS-PACKAGE
4 5 1 11 k 1 Short NA NA 33 RPFoil 1 k 831 6 331 FUSE 5 479 ADULT 25 526 0 4 5 9 FUSE-ADULT
4 5 1 12 j 1 Short NA NA 1 Target 1 j 1232 2 332 FUSE 5 479 DAIRY 19 537 0 4 5 9 FUSE-DAIRY
4 5 1 13 k 2 Long NA NA 61 RPFoil 1 k 1029 9 333 GRAMMAR 4 392 HIGHWAY 40 581 0 7 7 14 GRAMMAR-HIGHWAY
4 5 1 14 k 2 Long NA NA 60 RPFoil 1 k 1085 9 334 SLUMBER 3 500 WHISTLE 4 574 0 7 7 14 SLUMBER-WHISTLE
4 5 1 15 k 1 Short NA 101 NA NewFoil 1 k 744 10 335 FLAME 17 598 PLUG 23 583 0 5 4 9 FLAME-PLUG
4 5 1 16 k 1 Long 64 NA NA NewFoil 1 k 660 11 336 CARRIAGE 11 529 CONCRETE 48 564 0 8 8 16 CARRIAGE-CONCRETE
4 5 1 17 j 2 Long NA NA 25 Target 1 j 1093 5 337 GRAMMAR 4 392 WHISTLE 4 574 0 7 7 14 GRAMMAR-WHISTLE
4 5 1 18 k 1 Long NA NA 45 RPFoil 1 k 886 7 338 COLONEL 37 552 NECKLACE 3 606 0 7 8 15 COLONEL-NECKLACE
4 5 1 19 k 1 Long 50 NA NA NewFoil 1 k 715 11 339 CRUISER 4 553 MONARCH 3 572 0 7 7 14 CRUISER-MONARCH
4 5 1 20 k 2 Long NA NA 59 RPFoil 1 k 1131 9 340 SPEAKER 49 549 WHISTLE 4 574 0 7 7 14 SPEAKER-WHISTLE
4 5 1 21 j 1 Long NA NA 14 Target 1 j 1277 3 341 MEDICINE 30 551 PASTURE 14 562 0 8 7 15 MEDICINE-PASTURE
4 5 1 22 k 1 Short NA NA 34 RPFoil 1 k 792 6 342 MATCH 41 490 DESK 65 574 1 5 4 9 MATCH-DESK
4 5 1 23 k 2 Short NA NA 51 RPFoil 1 k 1520 8 343 GATE 37 545 CRIME 34 471 1 4 5 9 GATE-CRIME
4 5 1 24 k 1 Short NA NA 38 RPFoil 1 k 993 6 344 PALM 22 555 ACRE 9 464 0 4 4 8 PALM-ACRE
4 5 1 25 k 1 Short NA NA 36 RPFoil 1 k 684 6 345 BUMP 5 476 STEEL 45 534 0 4 5 9 BUMP-STEEL
4 5 1 26 j 2 Long NA NA 29 Target 1 j 888 5 346 GRAMMAR 4 392 MONSOON 3 498 0 7 7 14 GRAMMAR-MONSOON
4 5 1 27 k 1 Short NA 90 NA NewFoil 1 k 601 10 347 APRON 7 565 LENS 12 556 0 5 4 9 APRON-LENS
4 5 1 28 k 2 Long NA NA 62 RPFoil 1 k 1291 9 348 DISTRESS 15 443 HIGHWAY 40 581 0 8 7 15 DISTRESS-HIGHWAY
4 5 1 29 k 1 Short NA 36 NA NewFoil 1 k 648 10 349 MOON 60 585 CRUMB 3 497 0 4 5 9 MOON-CRUMB
4 5 1 30 j 1 Short NA NA 3 Target 0 k 750 2 350 THUMB 10 599 ADULT 25 526 0 5 5 10 THUMB-ADULT
4 5 1 31 j 2 Short NA NA 19 Target 1 j 969 4 351 GATE 37 545 WOOL 10 586 2 4 4 8 GATE-WOOL
4 5 1 32 j 2 Long NA NA 31 Target 1 j 1263 5 352 SPEAKER 49 549 HIGHWAY 40 581 0 7 7 14 SPEAKER-HIGHWAY
4 5 1 33 j 1 Long NA NA 12 Target 1 j 845 3 353 EXPRESS 42 456 HYGIENE 3 459 0 7 7 14 EXPRESS-HYGIENE
4 5 1 34 k 1 Short NA NA 37 RPFoil 1 k 810 6 354 TRAIL 31 525 RANCH 27 519 0 5 5 10 TRAIL-RANCH
4 5 1 35 k 2 Short NA NA 54 RPFoil 1 k 1150 8 355 KNOB 2 554 JELLY 3 590 0 4 5 9 KNOB-JELLY
4 5 1 36 k 1 Long NA NA 46 RPFoil 1 k 1115 7 356 MEDICINE 30 551 FLANNEL 4 520 0 8 7 15 MEDICINE-FLANNEL
4 5 1 37 k 2 Short NA NA 52 RPFoil 1 k 994 8 357 SINK 23 599 CRIME 34 471 0 4 5 9 SINK-CRIME
4 5 1 38 j 2 Long NA NA 30 Target 1 j 961 5 358 DISTRESS 15 443 WHISTLE 4 574 1 8 7 15 DISTRESS-WHISTLE
4 5 1 39 k 1 Long 55 NA NA NewFoil 1 k 689 11 359 PAYMENT 53 472 DENTIST 12 622 0 7 7 14 PAYMENT-DENTIST
4 5 1 40 k 1 Short NA 85 NA NewFoil 1 k 733 10 360 SALT 46 570 WIND 63 535 17 4 4 8 SALT-WIND
4 5 1 41 j 1 Short NA NA 8 Target 1 j 822 2 361 SWAMP 5 600 RANCH 27 519 0 5 5 10 SWAMP-RANCH
4 5 1 42 k 1 Short NA 15 NA NewFoil 1 k 714 10 362 SOCK 4 553 SEED 41 542 0 4 4 8 SOCK-SEED
4 5 1 43 j 1 Long NA NA 9 Target 1 j 754 3 363 TRUMPET 7 628 JUNCTION 7 502 0 7 8 15 TRUMPET-JUNCTION
4 5 1 44 k 1 Short NA NA 39 RPFoil 1 k 881 6 364 BERRY 9 551 CIGAR 10 619 0 5 5 10 BERRY-CIGAR
4 5 1 45 k 1 Long NA NA 43 RPFoil 1 k 1246 7 365 NURSERY 13 542 PASTURE 14 562 4 7 7 14 NURSERY-PASTURE
4 5 1 46 k 2 Short NA NA 50 RPFoil 1 k 1729 8 366 KNOB 2 554 WOOL 10 586 0 4 4 8 KNOB-WOOL
4 5 1 47 j 1 Long NA NA 10 Target 1 j 786 3 367 PATIENT 86 526 NECKLACE 3 606 0 7 8 15 PATIENT-NECKLACE
4 5 1 48 j 2 Short NA NA 18 Target 1 j 1122 4 368 KNOB 2 554 FLESH 52 567 0 4 5 9 KNOB-FLESH
4 5 1 49 j 2 Short NA NA 20 Target 1 j 1036 4 369 SINK 23 599 JELLY 3 590 0 4 5 9 SINK-JELLY
4 5 1 50 k 2 Long NA NA 58 RPFoil 1 k 1765 9 370 DISTRESS 15 443 MONSOON 3 498 0 8 7 15 DISTRESS-MONSOON
4 5 1 51 k 1 Short NA NA 35 RPFoil 1 k 1231 6 371 THUMB 10 599 DAIRY 19 537 0 5 5 10 THUMB-DAIRY
4 5 1 52 j 2 Short NA NA 21 Target 1 j 1028 4 372 FATE 33 343 WOOL 10 586 0 4 4 8 FATE-WOOL
4 5 1 53 k 1 Long NA NA 44 RPFoil 1 k 896 7 373 EXPRESS 42 456 JUNCTION 7 502 0 7 8 15 EXPRESS-JUNCTION
4 5 1 54 k 2 Short NA NA 53 RPFoil 1 k 1348 8 374 FATE 33 343 JELLY 3 590 2 4 5 9 FATE-JELLY
4 5 1 55 j 1 Long NA NA 13 Target 1 j 850 3 375 COLONEL 37 552 SPINACH 2 606 0 7 7 14 COLONEL-SPINACH
4 5 1 56 k 2 Short NA NA 49 RPFoil 1 k 1050 8 376 FATE 33 343 FLESH 52 567 3 4 5 9 FATE-FLESH
4 5 1 57 k 2 Long NA NA 64 RPFoil 1 k 854 9 377 SLUMBER 3 500 MONSOON 3 498 0 7 7 14 SLUMBER-MONSOON
4 5 1 58 j 1 Long NA NA 16 Target 1 j 823 3 378 FOREHEAD 16 596 WELCOME 50 470 1 8 7 15 FOREHEAD-WELCOME
4 5 1 59 k 1 Long NA NA 41 RPFoil 1 k 928 7 379 TRUMPET 7 628 TREASON 6 363 0 7 7 14 TRUMPET-TREASON
4 5 1 60 k 2 Short NA NA 56 RPFoil 1 k 1201 8 380 SINK 23 599 WOOL 10 586 0 4 4 8 SINK-WOOL
4 5 1 61 k 1 Short NA NA 40 RPFoil 1 k 788 6 381 SWAMP 5 600 ALIEN 16 470 0 5 5 10 SWAMP-ALIEN
4 5 1 62 j 1 Long NA NA 11 Target 1 j 1009 3 382 NURSERY 13 542 TREASON 6 363 0 7 7 14 NURSERY-TREASON
4 5 1 63 j 2 Long NA NA 32 Target 1 j 1142 5 383 SLUMBER 3 500 PACKAGE 20 529 0 7 7 14 SLUMBER-PACKAGE
4 5 1 64 j 1 Long NA NA 15 Target 1 j 946 3 384 FOUNTAIN 18 602 FLANNEL 4 520 0 8 7 15 FOUNTAIN-FLANNEL
4 5 1 65 j 2 Long NA NA 27 Target 1 j 925 5 385 SPEAKER 49 549 MONSOON 3 498 0 7 7 14 SPEAKER-MONSOON
4 5 1 66 j 2 Short NA NA 17 Target 1 j 1546 4 386 FATE 33 343 CRIME 34 471 3 4 5 9 FATE-CRIME
4 5 1 67 j 1 Short NA NA 7 Target 1 j 918 2 387 BERRY 9 551 ALIEN 16 470 0 5 5 10 BERRY-ALIEN
4 5 1 68 j 1 Short NA NA 6 Target 1 j 762 2 388 PALM 22 555 DESK 65 574 0 4 4 8 PALM-DESK
4 5 1 69 k 1 Long 63 NA NA NewFoil 1 k 720 11 389 PROPHET 5 467 OUTPOST 3 378 0 7 7 14 PROPHET-OUTPOST
4 5 1 70 k 1 Long NA NA 48 RPFoil 1 k 1064 7 390 FOREHEAD 16 596 SPINACH 2 606 0 8 7 15 FOREHEAD-SPINACH
4 5 1 71 k 1 Short NA 66 NA NewFoil 1 k 740 10 391 BEAN 5 538 DECK 23 539 0 4 4 8 BEAN-DECK
4 5 1 72 k 2 Short NA NA 55 RPFoil 1 k 1542 8 392 GATE 37 545 FLESH 52 567 5 4 5 9 GATE-FLESH
4 5 1 73 j 2 Long NA NA 28 Target 1 j 1087 5 393 SLUMBER 3 500 HIGHWAY 40 581 0 7 7 14 SLUMBER-HIGHWAY
4 5 1 74 k 2 Long NA NA 57 RPFoil 1 k 2799 9 394 GRAMMAR 4 392 PACKAGE 20 529 0 7 7 14 GRAMMAR-PACKAGE
4 5 1 75 k 1 Long NA NA 47 RPFoil 1 k 1104 7 395 FOUNTAIN 18 602 HYGIENE 3 459 0 8 7 15 FOUNTAIN-HYGIENE
4 5 1 76 k 1 Short NA 82 NA NewFoil 1 k 669 10 396 BARN 29 589 LOCK 23 532 2 4 4 8 BARN-LOCK
4 5 1 77 j 1 Short NA NA 2 Target 1 j 870 2 397 MATCH 41 490 ACRE 9 464 0 5 4 9 MATCH-ACRE
4 5 1 78 j 2 Short NA NA 23 Target 1 j 944 4 398 GATE 37 545 JELLY 3 590 1 4 5 9 GATE-JELLY
4 5 1 79 k 1 Long 101 NA NA NewFoil 1 k 686 11 399 RECEIPT 4 432 HARVEST 12 562 0 7 7 14 RECEIPT-HARVEST
4 5 1 80 j 2 Short NA NA 24 Target 1 j 1062 4 400 SINK 23 599 FLESH 52 567 0 4 5 9 SINK-FLESH
4 6 1 1 k 2 Short NA NA 50 RPFoil 1 k 1301 8 401 KNOB 2 554 WOOL 10 586 0 4 4 8 KNOB-WOOL
4 6 1 2 k 2 Long NA NA 57 RPFoil 1 k 1363 9 402 GRAMMAR 4 392 PACKAGE 20 529 0 7 7 14 GRAMMAR-PACKAGE
4 6 1 3 k 1 Long NA NA 46 RPFoil 1 k 967 7 403 MEDICINE 30 551 FLANNEL 4 520 0 8 7 15 MEDICINE-FLANNEL
4 6 1 4 j 1 Short NA NA 8 Target 1 j 907 2 404 SWAMP 5 600 RANCH 27 519 0 5 5 10 SWAMP-RANCH
4 6 1 5 j 1 Long NA NA 11 Target 1 j 985 3 405 NURSERY 13 542 TREASON 6 363 0 7 7 14 NURSERY-TREASON
4 6 1 6 k 1 Short NA 104 NA NewFoil 1 k 681 10 406 WOLF 6 610 JUICE 11 593 0 4 5 9 WOLF-JUICE
4 6 1 7 k 2 Long NA NA 60 RPFoil 1 k 1178 9 407 SLUMBER 3 500 WHISTLE 4 574 0 7 7 14 SLUMBER-WHISTLE
4 6 1 8 k 1 Short NA 21 NA NewFoil 1 k 713 10 408 CANDY 16 601 RAMP 6 527 0 5 4 9 CANDY-RAMP
4 6 1 9 j 2 Long NA NA 26 Target 1 j 841 5 409 DISTRESS 15 443 PACKAGE 20 529 0 8 7 15 DISTRESS-PACKAGE
4 6 1 10 k 1 Short NA NA 37 RPFoil 1 k 747 6 410 TRAIL 31 525 RANCH 27 519 0 5 5 10 TRAIL-RANCH
4 6 1 11 j 2 Short NA NA 19 Target 1 j 966 4 411 GATE 37 545 WOOL 10 586 2 4 4 8 GATE-WOOL
4 6 1 12 j 2 Short NA NA 24 Target 1 j 945 4 412 SINK 23 599 FLESH 52 567 0 4 5 9 SINK-FLESH
4 6 1 13 k 1 Long NA NA 47 RPFoil 1 k 979 7 413 FOUNTAIN 18 602 HYGIENE 3 459 0 8 7 15 FOUNTAIN-HYGIENE
4 6 1 14 j 1 Long NA NA 12 Target 1 j 924 3 414 EXPRESS 42 456 HYGIENE 3 459 0 7 7 14 EXPRESS-HYGIENE
4 6 1 15 k 2 Long NA NA 64 RPFoil 1 k 993 9 415 SLUMBER 3 500 MONSOON 3 498 0 7 7 14 SLUMBER-MONSOON
4 6 1 16 j 2 Long NA NA 32 Target 1 j 1064 5 416 SLUMBER 3 500 PACKAGE 20 529 0 7 7 14 SLUMBER-PACKAGE
4 6 1 17 j 1 Long NA NA 9 Target 1 j 720 3 417 TRUMPET 7 628 JUNCTION 7 502 0 7 8 15 TRUMPET-JUNCTION
4 6 1 18 k 1 Long 1 NA NA NewFoil 1 k 662 11 418 MORTGAGE 17 358 CONVENT 4 559 0 8 7 15 MORTGAGE-CONVENT
4 6 1 19 k 2 Short NA NA 52 RPFoil 1 k 999 8 419 SINK 23 599 CRIME 34 471 0 4 5 9 SINK-CRIME
4 6 1 20 j 2 Short NA NA 22 Target 1 j 907 4 420 KNOB 2 554 CRIME 34 471 0 4 5 9 KNOB-CRIME
4 6 1 21 j 2 Short NA NA 23 Target 1 j 972 4 421 GATE 37 545 JELLY 3 590 1 4 5 9 GATE-JELLY
4 6 1 22 k 2 Short NA NA 55 RPFoil 1 k 1819 8 422 GATE 37 545 FLESH 52 567 5 4 5 9 GATE-FLESH
4 6 1 23 k 1 Short NA NA 33 RPFoil 1 k 865 6 423 FUSE 5 479 ADULT 25 526 0 4 5 9 FUSE-ADULT
4 6 1 24 k 1 Short NA NA 39 RPFoil 1 k 894 6 424 BERRY 9 551 CIGAR 10 619 0 5 5 10 BERRY-CIGAR
4 6 1 25 k 1 Short NA NA 38 RPFoil 1 k 859 6 425 PALM 22 555 ACRE 9 464 0 4 4 8 PALM-ACRE
4 6 1 26 k 2 Long NA NA 63 RPFoil 1 k 1036 9 426 SPEAKER 49 549 PACKAGE 20 529 0 7 7 14 SPEAKER-PACKAGE
4 6 1 27 k 1 Short NA 96 NA NewFoil 1 k 773 10 427 GHOST 11 552 RACK 9 439 0 5 4 9 GHOST-RACK
4 6 1 28 k 1 Long NA NA 43 RPFoil 1 k 1106 7 428 NURSERY 13 542 PASTURE 14 562 4 7 7 14 NURSERY-PASTURE
4 6 1 29 k 2 Long NA NA 58 RPFoil 1 k 913 9 429 DISTRESS 15 443 MONSOON 3 498 0 8 7 15 DISTRESS-MONSOON
4 6 1 30 j 2 Long NA NA 27 Target 1 j 956 5 430 SPEAKER 49 549 MONSOON 3 498 0 7 7 14 SPEAKER-MONSOON
4 6 1 31 k 1 Long NA NA 42 RPFoil 1 k 1045 7 431 PATIENT 86 526 WELCOME 50 470 9 7 7 14 PATIENT-WELCOME
4 6 1 32 k 2 Long NA NA 61 RPFoil 1 k 1111 9 432 GRAMMAR 4 392 HIGHWAY 40 581 0 7 7 14 GRAMMAR-HIGHWAY
4 6 1 33 k 1 Short NA 25 NA NewFoil 1 k 681 10 433 VEST 4 581 LOBBY 20 462 0 4 5 9 VEST-LOBBY
4 6 1 34 k 2 Long NA NA 62 RPFoil 1 k 1144 9 434 DISTRESS 15 443 HIGHWAY 40 581 0 8 7 15 DISTRESS-HIGHWAY
4 6 1 35 k 1 Short NA 93 NA NewFoil 1 k 675 10 435 COACH 24 560 SPOON 6 584 0 5 5 10 COACH-SPOON
4 6 1 36 j 1 Long NA NA 16 Target 1 j 788 3 436 FOREHEAD 16 596 WELCOME 50 470 1 8 7 15 FOREHEAD-WELCOME
4 6 1 37 k 2 Short NA NA 54 RPFoil 1 k 2276 8 437 KNOB 2 554 JELLY 3 590 0 4 5 9 KNOB-JELLY
4 6 1 38 j 1 Long NA NA 15 Target 1 j 826 3 438 FOUNTAIN 18 602 FLANNEL 4 520 0 8 7 15 FOUNTAIN-FLANNEL
4 6 1 39 k 1 Long 88 NA NA NewFoil 1 k 652 11 439 SHELTER 70 488 SERVANT 19 508 4 7 7 14 SHELTER-SERVANT
4 6 1 40 k 1 Long 38 NA NA NewFoil 1 k 667 11 440 BALANCE 90 429 MISTRESS 5 535 1 7 8 15 BALANCE-MISTRESS
4 6 1 41 k 1 Short NA 47 NA NewFoil 1 k 658 10 441 RIDGE 18 543 BONE 33 567 1 5 4 9 RIDGE-BONE
4 6 1 42 k 1 Short NA 29 NA NewFoil 1 k 651 10 442 MANOR 5 508 POUCH 2 513 0 5 5 10 MANOR-POUCH
4 6 1 43 k 2 Short NA NA 49 RPFoil 1 k 1072 8 443 FATE 33 343 FLESH 52 567 3 4 5 9 FATE-FLESH
4 6 1 44 j 2 Short NA NA 21 Target 1 j 1315 4 444 FATE 33 343 WOOL 10 586 0 4 4 8 FATE-WOOL
4 6 1 45 k 1 Long 58 NA NA NewFoil 1 k 663 11 445 FIGMENT 2 304 PASSAGE 49 525 0 7 7 14 FIGMENT-PASSAGE
4 6 1 46 j 1 Long NA NA 10 Target 1 j 1072 3 446 PATIENT 86 526 NECKLACE 3 606 0 7 8 15 PATIENT-NECKLACE
4 6 1 47 k 1 Short NA NA 40 RPFoil 1 k 1093 6 447 SWAMP 5 600 ALIEN 16 470 0 5 5 10 SWAMP-ALIEN
4 6 1 48 j 2 Long NA NA 25 Target 1 j 1567 5 448 GRAMMAR 4 392 WHISTLE 4 574 0 7 7 14 GRAMMAR-WHISTLE
4 6 1 49 j 1 Short NA NA 7 Target 1 j 856 2 449 BERRY 9 551 ALIEN 16 470 0 5 5 10 BERRY-ALIEN
4 6 1 50 j 2 Short NA NA 17 Target 1 j 1180 4 450 FATE 33 343 CRIME 34 471 3 4 5 9 FATE-CRIME
4 6 1 51 k 1 Long 60 NA NA NewFoil 1 k 743 11 451 WOODLAND 2 608 CHUCKLE 5 497 0 8 7 15 WOODLAND-CHUCKLE
4 6 1 52 j 1 Short NA NA 4 Target 1 j 855 2 452 BUMP 5 476 CIGAR 10 619 0 4 5 9 BUMP-CIGAR
4 6 1 53 j 2 Long NA NA 29 Target 1 j 1085 5 453 GRAMMAR 4 392 MONSOON 3 498 0 7 7 14 GRAMMAR-MONSOON
4 6 1 54 k 1 Short NA 35 NA NewFoil 1 k 708 10 454 HERB 7 502 LODGE 19 464 0 4 5 9 HERB-LODGE
4 6 1 55 j 2 Short NA NA 20 Target 1 j 2169 4 455 SINK 23 599 JELLY 3 590 0 4 5 9 SINK-JELLY
4 6 1 56 j 2 Long NA NA 28 Target 1 j 1134 5 456 SLUMBER 3 500 HIGHWAY 40 581 0 7 7 14 SLUMBER-HIGHWAY
4 6 1 57 j 2 Short NA NA 18 Target 1 j 932 4 457 KNOB 2 554 FLESH 52 567 0 4 5 9 KNOB-FLESH
4 6 1 58 j 1 Short NA NA 1 Target 1 j 798 2 458 FUSE 5 479 DAIRY 19 537 0 4 5 9 FUSE-DAIRY
4 6 1 59 k 2 Short NA NA 56 RPFoil 1 k 1616 8 459 SINK 23 599 WOOL 10 586 0 4 4 8 SINK-WOOL
4 6 1 60 k 2 Long NA NA 59 RPFoil 1 k 1235 9 460 SPEAKER 49 549 WHISTLE 4 574 0 7 7 14 SPEAKER-WHISTLE
4 6 1 61 k 1 Long NA NA 45 RPFoil 1 k 849 7 461 COLONEL 37 552 NECKLACE 3 606 0 7 8 15 COLONEL-NECKLACE
4 6 1 62 j 1 Short NA NA 3 Target 1 j 784 2 462 THUMB 10 599 ADULT 25 526 0 5 5 10 THUMB-ADULT
4 6 1 63 j 2 Long NA NA 31 Target 1 j 1019 5 463 SPEAKER 49 549 HIGHWAY 40 581 0 7 7 14 SPEAKER-HIGHWAY
4 6 1 64 k 1 Short NA NA 36 RPFoil 1 k 799 6 464 BUMP 5 476 STEEL 45 534 0 4 5 9 BUMP-STEEL
4 6 1 65 k 1 Long 12 NA NA NewFoil 1 k 791 11 465 MOISTURE 10 513 FURNACE 11 586 0 8 7 15 MOISTURE-FURNACE
4 6 1 66 k 1 Short NA NA 34 RPFoil 1 k 863 6 466 MATCH 41 490 DESK 65 574 1 5 4 9 MATCH-DESK
4 6 1 67 k 2 Short NA NA 53 RPFoil 1 k 1582 8 467 FATE 33 343 JELLY 3 590 2 4 5 9 FATE-JELLY
4 6 1 68 k 1 Long NA NA 41 RPFoil 1 k 873 7 468 TRUMPET 7 628 TREASON 6 363 0 7 7 14 TRUMPET-TREASON
4 6 1 69 j 1 Long NA NA 14 Target 1 j 1486 3 469 MEDICINE 30 551 PASTURE 14 562 0 8 7 15 MEDICINE-PASTURE
4 6 1 70 j 1 Long NA NA 13 Target 1 j 753 3 470 COLONEL 37 552 SPINACH 2 606 0 7 7 14 COLONEL-SPINACH
4 6 1 71 k 2 Short NA NA 51 RPFoil 1 k 1470 8 471 GATE 37 545 CRIME 34 471 1 4 5 9 GATE-CRIME
4 6 1 72 k 1 Long NA NA 48 RPFoil 1 k 1003 7 472 FOREHEAD 16 596 SPINACH 2 606 0 8 7 15 FOREHEAD-SPINACH
4 6 1 73 k 1 Short NA NA 35 RPFoil 1 k 1022 6 473 THUMB 10 599 DAIRY 19 537 0 5 5 10 THUMB-DAIRY
4 6 1 74 j 2 Long NA NA 30 Target 1 j 976 5 474 DISTRESS 15 443 WHISTLE 4 574 1 8 7 15 DISTRESS-WHISTLE
4 6 1 75 j 1 Short NA NA 5 Target 1 j 1034 2 475 TRAIL 31 525 STEEL 45 534 1 5 5 10 TRAIL-STEEL
4 6 1 76 k 1 Long 8 NA NA NewFoil 1 k 696 11 476 BLANKET 30 582 GARMENT 6 507 0 7 7 14 BLANKET-GARMENT
4 6 1 77 k 1 Long 96 NA NA NewFoil 1 k 667 11 477 LAUNDRY 5 559 BLOSSOM 7 618 0 7 7 14 LAUNDRY-BLOSSOM
4 6 1 78 j 1 Short NA NA 2 Target 1 j 994 2 478 MATCH 41 490 ACRE 9 464 0 5 4 9 MATCH-ACRE
4 6 1 79 j 1 Short NA NA 6 Target 1 j 712 2 479 PALM 22 555 DESK 65 574 0 4 4 8 PALM-DESK
4 6 1 80 k 1 Long NA NA 44 RPFoil 1 k 1073 7 480 EXPRESS 42 456 JUNCTION 7 502 0 7 8 15 EXPRESS-JUNCTION
4 7 1 1 k 1 Long 65 NA NA NewFoil 1 k 627 11 481 BUTCHER 8 596 CLOTHING 20 588 0 7 8 15 BUTCHER-CLOTHING
4 7 1 2 k 2 Long NA NA 64 RPFoil 1 k 981 9 482 SLUMBER 3 500 MONSOON 3 498 0 7 7 14 SLUMBER-MONSOON
4 7 1 3 j 2 Long NA NA 28 Target 1 j 1441 5 483 SLUMBER 3 500 HIGHWAY 40 581 0 7 7 14 SLUMBER-HIGHWAY
4 7 1 4 k 1 Short NA NA 36 RPFoil 1 k 699 6 484 BUMP 5 476 STEEL 45 534 0 4 5 9 BUMP-STEEL
4 7 1 5 k 2 Short NA NA 54 RPFoil 1 k 1045 8 485 KNOB 2 554 JELLY 3 590 0 4 5 9 KNOB-JELLY
4 7 1 6 j 2 Short NA NA 21 Target 1 j 814 4 486 FATE 33 343 WOOL 10 586 0 4 4 8 FATE-WOOL
4 7 1 7 k 2 Short NA NA 49 RPFoil 1 k 965 8 487 FATE 33 343 FLESH 52 567 3 4 5 9 FATE-FLESH
4 7 1 8 j 2 Long NA NA 30 Target 1 j 737 5 488 DISTRESS 15 443 WHISTLE 4 574 1 8 7 15 DISTRESS-WHISTLE
4 7 1 9 j 2 Short NA NA 23 Target 1 j 1075 4 489 GATE 37 545 JELLY 3 590 1 4 5 9 GATE-JELLY
4 7 1 10 k 1 Short NA 44 NA NewFoil 1 k 657 10 490 MILE 48 511 BELL 18 610 0 4 4 8 MILE-BELL
4 7 1 11 k 2 Short NA NA 50 RPFoil 1 k 957 8 491 KNOB 2 554 WOOL 10 586 0 4 4 8 KNOB-WOOL
4 7 1 12 k 2 Short NA NA 55 RPFoil 1 k 1291 8 492 GATE 37 545 FLESH 52 567 5 4 5 9 GATE-FLESH
4 7 1 13 k 1 Long 70 NA NA NewFoil 1 k 701 11 493 CATFISH 2 544 SHUTTER 5 533 0 7 7 14 CATFISH-SHUTTER
4 7 1 14 k 2 Short NA NA 51 RPFoil 1 k 887 8 494 GATE 37 545 CRIME 34 471 1 4 5 9 GATE-CRIME
4 7 1 15 k 1 Long 80 NA NA NewFoil 1 k 644 11 495 THUNDER 14 554 CABBAGE 4 573 0 7 7 14 THUNDER-CABBAGE
4 7 1 16 k 2 Long NA NA 60 RPFoil 1 k 1135 9 496 SLUMBER 3 500 WHISTLE 4 574 0 7 7 14 SLUMBER-WHISTLE
4 7 1 17 j 1 Long NA NA 14 Target 1 j 1111 3 497 MEDICINE 30 551 PASTURE 14 562 0 8 7 15 MEDICINE-PASTURE
4 7 1 18 j 1 Short NA NA 3 Target 1 j 697 2 498 THUMB 10 599 ADULT 25 526 0 5 5 10 THUMB-ADULT
4 7 1 19 k 2 Short NA NA 56 RPFoil 1 k 1236 8 499 SINK 23 599 WOOL 10 586 0 4 4 8 SINK-WOOL
4 7 1 20 j 2 Short NA NA 20 Target 1 j 1496 4 500 SINK 23 599 JELLY 3 590 0 4 5 9 SINK-JELLY
4 7 1 21 k 1 Short NA NA 35 RPFoil 1 k 1179 6 501 THUMB 10 599 DAIRY 19 537 0 5 5 10 THUMB-DAIRY
4 7 1 22 k 2 Long NA NA 62 RPFoil 1 k 1268 9 502 DISTRESS 15 443 HIGHWAY 40 581 0 8 7 15 DISTRESS-HIGHWAY
4 7 1 23 k 1 Short NA NA 40 RPFoil 1 k 907 6 503 SWAMP 5 600 ALIEN 16 470 0 5 5 10 SWAMP-ALIEN
4 7 1 24 j 1 Long NA NA 10 Target 1 j 755 3 504 PATIENT 86 526 NECKLACE 3 606 0 7 8 15 PATIENT-NECKLACE
4 7 1 25 j 1 Short NA NA 5 Target 1 j 693 2 505 TRAIL 31 525 STEEL 45 534 1 5 5 10 TRAIL-STEEL
4 7 1 26 k 1 Short NA 77 NA NewFoil 1 k 641 10 506 PRIZE 28 517 EDGE 78 495 1 5 4 9 PRIZE-EDGE
4 7 1 27 j 1 Short NA NA 8 Target 1 j 709 2 507 SWAMP 5 600 RANCH 27 519 0 5 5 10 SWAMP-RANCH
4 7 1 28 j 1 Short NA NA 1 Target 1 j 921 2 508 FUSE 5 479 DAIRY 19 537 0 4 5 9 FUSE-DAIRY
4 7 1 29 j 2 Long NA NA 26 Target 1 j 745 5 509 DISTRESS 15 443 PACKAGE 20 529 0 8 7 15 DISTRESS-PACKAGE
4 7 1 30 j 2 Long NA NA 32 Target 1 j 801 5 510 SLUMBER 3 500 PACKAGE 20 529 0 7 7 14 SLUMBER-PACKAGE
4 7 1 31 j 2 Long NA NA 29 Target 1 j 743 5 511 GRAMMAR 4 392 MONSOON 3 498 0 7 7 14 GRAMMAR-MONSOON
4 7 1 32 j 1 Long NA NA 9 Target 1 j 754 3 512 TRUMPET 7 628 JUNCTION 7 502 0 7 8 15 TRUMPET-JUNCTION
4 7 1 33 k 1 Long NA NA 41 RPFoil 1 k 870 7 513 TRUMPET 7 628 TREASON 6 363 0 7 7 14 TRUMPET-TREASON
4 7 1 34 k 1 Long 24 NA NA NewFoil 1 k 727 11 514 IMPULSE 20 396 CULTURE 58 339 0 7 7 14 IMPULSE-CULTURE
4 7 1 35 k 1 Long 21 NA NA NewFoil 1 k 687 11 515 SILENCE 52 470 CONFLICT 52 432 0 7 8 15 SILENCE-CONFLICT
4 7 1 36 j 1 Short NA NA 6 Target 1 j 800 2 516 PALM 22 555 DESK 65 574 0 4 4 8 PALM-DESK
4 7 1 37 j 1 Short NA NA 4 Target 1 j 759 2 517 BUMP 5 476 CIGAR 10 619 0 4 5 9 BUMP-CIGAR
4 7 1 38 k 1 Long NA NA 43 RPFoil 1 k 1605 7 518 NURSERY 13 542 PASTURE 14 562 4 7 7 14 NURSERY-PASTURE
4 7 1 39 k 1 Short NA 53 NA NewFoil 1 k 691 10 519 STEM 29 533 VENOM 2 456 0 4 5 9 STEM-VENOM
4 7 1 40 k 1 Long NA NA 42 RPFoil 1 k 1023 7 520 PATIENT 86 526 WELCOME 50 470 9 7 7 14 PATIENT-WELCOME
4 7 1 41 k 1 Long NA NA 44 RPFoil 1 k 799 7 521 EXPRESS 42 456 JUNCTION 7 502 0 7 8 15 EXPRESS-JUNCTION
4 7 1 42 j 2 Short NA NA 22 Target 1 j 686 4 522 KNOB 2 554 CRIME 34 471 0 4 5 9 KNOB-CRIME
4 7 1 43 k 2 Long NA NA 59 RPFoil 1 k 750 9 523 SPEAKER 49 549 WHISTLE 4 574 0 7 7 14 SPEAKER-WHISTLE
4 7 1 44 j 1 Short NA NA 2 Target 1 j 637 2 524 MATCH 41 490 ACRE 9 464 0 5 4 9 MATCH-ACRE
4 7 1 45 k 1 Short NA 27 NA NewFoil 1 k 632 10 525 SPEAR 7 545 CARGO 7 497 0 5 5 10 SPEAR-CARGO
4 7 1 46 j 1 Long NA NA 11 Target 1 j 818 3 526 NURSERY 13 542 TREASON 6 363 0 7 7 14 NURSERY-TREASON
4 7 1 47 k 2 Long NA NA 57 RPFoil 1 k 961 9 527 GRAMMAR 4 392 PACKAGE 20 529 0 7 7 14 GRAMMAR-PACKAGE
4 7 1 48 k 1 Long NA NA 45 RPFoil 1 k 874 7 528 COLONEL 37 552 NECKLACE 3 606 0 7 8 15 COLONEL-NECKLACE
4 7 1 49 j 1 Long NA NA 15 Target 1 j 739 3 529 FOUNTAIN 18 602 FLANNEL 4 520 0 8 7 15 FOUNTAIN-FLANNEL
4 7 1 50 k 1 Short NA 1 NA NewFoil 1 k 712 10 530 FENCE 30 611 ALERT 33 428 0 5 5 10 FENCE-ALERT
4 7 1 51 j 2 Long NA NA 25 Target 1 j 1045 5 531 GRAMMAR 4 392 WHISTLE 4 574 0 7 7 14 GRAMMAR-WHISTLE
4 7 1 52 k 1 Short NA NA 37 RPFoil 1 k 777 6 532 TRAIL 31 525 RANCH 27 519 0 5 5 10 TRAIL-RANCH
4 7 1 53 j 2 Short NA NA 18 Target 1 j 1481 4 533 KNOB 2 554 FLESH 52 567 0 4 5 9 KNOB-FLESH
4 7 1 54 k 1 Long NA NA 46 RPFoil 0 j 908 7 534 MEDICINE 30 551 FLANNEL 4 520 0 8 7 15 MEDICINE-FLANNEL
4 7 1 55 j 2 Short NA NA 24 Target 1 j 1105 4 535 SINK 23 599 FLESH 52 567 0 4 5 9 SINK-FLESH
4 7 1 56 j 2 Long NA NA 31 Target 1 j 1037 5 536 SPEAKER 49 549 HIGHWAY 40 581 0 7 7 14 SPEAKER-HIGHWAY
4 7 1 57 k 1 Short NA NA 34 RPFoil 1 k 762 6 537 MATCH 41 490 DESK 65 574 1 5 4 9 MATCH-DESK
4 7 1 58 j 1 Long NA NA 12 Target 1 j 1160 3 538 EXPRESS 42 456 HYGIENE 3 459 0 7 7 14 EXPRESS-HYGIENE
4 7 1 59 j 1 Long NA NA 16 Target 1 j 811 3 539 FOREHEAD 16 596 WELCOME 50 470 1 8 7 15 FOREHEAD-WELCOME
4 7 1 60 k 1 Long 67 NA NA NewFoil 1 k 713 11 540 WITNESS 28 467 FLICKER 2 506 0 7 7 14 WITNESS-FLICKER
4 7 1 61 j 1 Short NA NA 7 Target 1 j 907 2 541 BERRY 9 551 ALIEN 16 470 0 5 5 10 BERRY-ALIEN
4 7 1 62 k 1 Long NA NA 48 RPFoil 1 k 1001 7 542 FOREHEAD 16 596 SPINACH 2 606 0 8 7 15 FOREHEAD-SPINACH
4 7 1 63 k 1 Short NA NA 38 RPFoil 1 k 734 6 543 PALM 22 555 ACRE 9 464 0 4 4 8 PALM-ACRE
4 7 1 64 k 1 Long NA NA 47 RPFoil 1 k 881 7 544 FOUNTAIN 18 602 HYGIENE 3 459 0 8 7 15 FOUNTAIN-HYGIENE
4 7 1 65 k 2 Short NA NA 52 RPFoil 1 k 892 8 545 SINK 23 599 CRIME 34 471 0 4 5 9 SINK-CRIME
4 7 1 66 k 1 Short NA 38 NA NewFoil 1 k 652 10 546 NEST 20 571 CURB 13 556 0 4 4 8 NEST-CURB
4 7 1 67 k 1 Long 49 NA NA NewFoil 1 k 603 11 547 LIGHTER 12 458 COMFORT 43 421 6 7 7 14 LIGHTER-COMFORT
4 7 1 68 k 1 Short NA NA 33 RPFoil 1 k 800 6 548 FUSE 5 479 ADULT 25 526 0 4 5 9 FUSE-ADULT
4 7 1 69 k 1 Short NA 12 NA NewFoil 1 k 648 10 549 GIANT 23 562 CROOK 3 526 3 5 5 10 GIANT-CROOK
4 7 1 70 j 2 Short NA NA 17 Target 1 j 1335 4 550 FATE 33 343 CRIME 34 471 3 4 5 9 FATE-CRIME
4 7 1 71 j 2 Long NA NA 27 Target 1 j 835 5 551 SPEAKER 49 549 MONSOON 3 498 0 7 7 14 SPEAKER-MONSOON
4 7 1 72 j 2 Short NA NA 19 Target 1 j 937 4 552 GATE 37 545 WOOL 10 586 2 4 4 8 GATE-WOOL
4 7 1 73 k 2 Long NA NA 63 RPFoil 1 k 898 9 553 SPEAKER 49 549 PACKAGE 20 529 0 7 7 14 SPEAKER-PACKAGE
4 7 1 74 j 1 Long NA NA 13 Target 1 j 1265 3 554 COLONEL 37 552 SPINACH 2 606 0 7 7 14 COLONEL-SPINACH
4 7 1 75 k 1 Short NA 71 NA NewFoil 1 k 702 10 555 DIRT 43 547 PLATE 22 527 0 4 5 9 DIRT-PLATE
4 7 1 76 k 1 Short NA NA 39 RPFoil 1 k 890 6 556 BERRY 9 551 CIGAR 10 619 0 5 5 10 BERRY-CIGAR
4 7 1 77 k 2 Short NA NA 53 RPFoil 1 k 1261 8 557 FATE 33 343 JELLY 3 590 2 4 5 9 FATE-JELLY
4 7 1 78 k 1 Long 93 NA NA NewFoil 1 k 683 11 558 STOMACH 37 551 BARGAIN 7 505 1 7 7 14 STOMACH-BARGAIN
4 7 1 79 k 2 Long NA NA 58 RPFoil 1 k 975 9 559 DISTRESS 15 443 MONSOON 3 498 0 8 7 15 DISTRESS-MONSOON
4 7 1 80 k 2 Long NA NA 61 RPFoil 1 k 978 9 560 GRAMMAR 4 392 HIGHWAY 40 581 0 7 7 14 GRAMMAR-HIGHWAY
4 8 1 1 k 2 Short NA NA 49 RPFoil 1 k 946 8 561 FATE 33 343 FLESH 52 567 3 4 5 9 FATE-FLESH
4 8 1 2 k 1 Long 71 NA NA NewFoil 1 k 720 11 562 BANDAGE 4 554 PORTRAIT 17 565 0 7 8 15 BANDAGE-PORTRAIT
4 8 1 3 k 1 Short NA NA 40 RPFoil 1 k 723 6 563 SWAMP 5 600 ALIEN 16 470 0 5 5 10 SWAMP-ALIEN
4 8 1 4 j 1 Long NA NA 16 Target 1 j 1050 3 564 FOREHEAD 16 596 WELCOME 50 470 1 8 7 15 FOREHEAD-WELCOME
4 8 1 5 k 1 Short NA 26 NA NewFoil 1 k 687 10 565 FILE 81 442 CLAM 3 541 0 4 4 8 FILE-CLAM
4 8 1 6 j 2 Long NA NA 31 Target 0 k 881 5 566 SPEAKER 49 549 HIGHWAY 40 581 0 7 7 14 SPEAKER-HIGHWAY
4 8 1 7 j 2 Short NA NA 19 Target 1 j 869 4 567 GATE 37 545 WOOL 10 586 2 4 4 8 GATE-WOOL
4 8 1 8 k 2 Long NA NA 59 RPFoil 1 k 1415 9 568 SPEAKER 49 549 WHISTLE 4 574 0 7 7 14 SPEAKER-WHISTLE
4 8 1 9 j 1 Short NA NA 8 Target 1 j 721 2 569 SWAMP 5 600 RANCH 27 519 0 5 5 10 SWAMP-RANCH
4 8 1 10 k 1 Long NA NA 47 RPFoil 1 k 893 7 570 FOUNTAIN 18 602 HYGIENE 3 459 0 8 7 15 FOUNTAIN-HYGIENE
4 8 1 11 j 1 Short NA NA 1 Target 1 j 857 2 571 FUSE 5 479 DAIRY 19 537 0 4 5 9 FUSE-DAIRY
4 8 1 12 k 1 Short NA NA 33 RPFoil 1 k 717 6 572 FUSE 5 479 ADULT 25 526 0 4 5 9 FUSE-ADULT
4 8 1 13 k 2 Short NA NA 50 RPFoil 1 k 1185 8 573 KNOB 2 554 WOOL 10 586 0 4 4 8 KNOB-WOOL
4 8 1 14 j 2 Short NA NA 20 Target 1 j 976 4 574 SINK 23 599 JELLY 3 590 0 4 5 9 SINK-JELLY
4 8 1 15 k 1 Short NA 42 NA NewFoil 1 k 653 10 575 BONUS 2 397 TIGER 7 606 0 5 5 10 BONUS-TIGER
4 8 1 16 j 2 Long NA NA 26 Target 0 k 1323 5 576 DISTRESS 15 443 PACKAGE 20 529 0 8 7 15 DISTRESS-PACKAGE
4 8 1 17 k 1 Long NA NA 42 RPFoil 1 k 864 7 577 PATIENT 86 526 WELCOME 50 470 9 7 7 14 PATIENT-WELCOME
4 8 1 18 k 1 Long 18 NA NA NewFoil 1 k 720 11 578 FATIGUE 11 502 PASSPORT 6 546 0 7 8 15 FATIGUE-PASSPORT
4 8 1 19 k 1 Short NA NA 39 RPFoil 1 k 1383 6 579 BERRY 9 551 CIGAR 10 619 0 5 5 10 BERRY-CIGAR
4 8 1 20 k 2 Long NA NA 60 RPFoil 1 k 1308 9 580 SLUMBER 3 500 WHISTLE 4 574 0 7 7 14 SLUMBER-WHISTLE
4 8 1 21 j 2 Long NA NA 29 Target 1 j 1205 5 581 GRAMMAR 4 392 MONSOON 3 498 0 7 7 14 GRAMMAR-MONSOON
4 8 1 22 j 1 Short NA NA 4 Target 1 j 860 2 582 BUMP 5 476 CIGAR 10 619 0 4 5 9 BUMP-CIGAR
4 8 1 23 k 2 Long NA NA 58 RPFoil 1 k 1308 9 583 DISTRESS 15 443 MONSOON 3 498 0 8 7 15 DISTRESS-MONSOON
4 8 1 24 k 2 Short NA NA 53 RPFoil 1 k 1640 8 584 FATE 33 343 JELLY 3 590 2 4 5 9 FATE-JELLY
4 8 1 25 j 1 Long NA NA 10 Target 1 j 756 3 585 PATIENT 86 526 NECKLACE 3 606 0 7 8 15 PATIENT-NECKLACE
4 8 1 26 k 1 Long 9 NA NA NewFoil 1 k 688 11 586 DELIGHT 29 459 SHALLOW 14 451 0 7 7 14 DELIGHT-SHALLOW
4 8 1 27 k 1 Long 51 NA NA NewFoil 1 k 657 11 587 COMPACT 12 462 BOUQUET 4 599 1 7 7 14 COMPACT-BOUQUET
4 8 1 28 k 1 Short NA 69 NA NewFoil 1 k 659 10 588 LAMP 18 575 AXLE 5 560 0 4 4 8 LAMP-AXLE
4 8 1 29 j 1 Short NA NA 5 Target 1 j 777 2 589 TRAIL 31 525 STEEL 45 534 1 5 5 10 TRAIL-STEEL
4 8 1 30 j 2 Short NA NA 18 Target 1 j 979 4 590 KNOB 2 554 FLESH 52 567 0 4 5 9 KNOB-FLESH
4 8 1 31 j 2 Short NA NA 21 Target 1 j 867 4 591 FATE 33 343 WOOL 10 586 0 4 4 8 FATE-WOOL
4 8 1 32 k 1 Short NA 78 NA NewFoil 1 k 626 10 592 ALGAE 7 424 DANCE 90 510 0 5 5 10 ALGAE-DANCE
4 8 1 33 j 1 Short NA NA 7 Target 1 j 846 2 593 BERRY 9 551 ALIEN 16 470 0 5 5 10 BERRY-ALIEN
4 8 1 34 j 1 Long NA NA 13 Target 1 j 695 3 594 COLONEL 37 552 SPINACH 2 606 0 7 7 14 COLONEL-SPINACH
4 8 1 35 k 1 Short NA NA 37 RPFoil 1 k 787 6 595 TRAIL 31 525 RANCH 27 519 0 5 5 10 TRAIL-RANCH
4 8 1 36 j 2 Short NA NA 24 Target 1 j 1045 4 596 SINK 23 599 FLESH 52 567 0 4 5 9 SINK-FLESH
4 8 1 37 j 2 Long NA NA 27 Target 1 j 1015 5 597 SPEAKER 49 549 MONSOON 3 498 0 7 7 14 SPEAKER-MONSOON
4 8 1 38 j 1 Short NA NA 2 Target 1 j 800 2 598 MATCH 41 490 ACRE 9 464 0 5 4 9 MATCH-ACRE
4 8 1 39 k 2 Long NA NA 57 RPFoil 1 k 1068 9 599 GRAMMAR 4 392 PACKAGE 20 529 0 7 7 14 GRAMMAR-PACKAGE
4 8 1 40 j 2 Short NA NA 23 Target 1 j 985 4 600 GATE 37 545 JELLY 3 590 1 4 5 9 GATE-JELLY
4 8 1 41 k 2 Short NA NA 55 RPFoil 1 k 1615 8 601 GATE 37 545 FLESH 52 567 5 4 5 9 GATE-FLESH
4 8 1 42 k 1 Short NA NA 34 RPFoil 1 k 839 6 602 MATCH 41 490 DESK 65 574 1 5 4 9 MATCH-DESK
4 8 1 43 k 1 Short NA 20 NA NewFoil 1 k 658 10 603 RICE 33 506 BANK 83 560 9 4 4 8 RICE-BANK
4 8 1 44 k 1 Long NA NA 46 RPFoil 1 k 1247 7 604 MEDICINE 30 551 FLANNEL 4 520 0 8 7 15 MEDICINE-FLANNEL
4 8 1 45 k 1 Short NA 11 NA NewFoil 1 k 572 10 605 QUILL 9 530 RAKE 11 550 0 5 4 9 QUILL-RAKE
4 8 1 46 k 2 Long NA NA 63 RPFoil 1 k 939 9 606 SPEAKER 49 549 PACKAGE 20 529 0 7 7 14 SPEAKER-PACKAGE
4 8 1 47 j 2 Long NA NA 32 Target 0 k 1485 5 607 SLUMBER 3 500 PACKAGE 20 529 0 7 7 14 SLUMBER-PACKAGE
4 8 1 48 k 1 Long 61 NA NA NewFoil 1 k 686 11 608 WARRIOR 5 553 FAILURE 89 437 0 7 7 14 WARRIOR-FAILURE
4 8 1 49 k 2 Short NA NA 51 RPFoil 1 k 1038 8 609 GATE 37 545 CRIME 34 471 1 4 5 9 GATE-CRIME
4 8 1 50 k 1 Long NA NA 43 RPFoil 1 k 1595 7 610 NURSERY 13 542 PASTURE 14 562 4 7 7 14 NURSERY-PASTURE
4 8 1 51 j 2 Long NA NA 28 Target 1 j 1253 5 611 SLUMBER 3 500 HIGHWAY 40 581 0 7 7 14 SLUMBER-HIGHWAY
4 8 1 52 k 1 Short NA 61 NA NewFoil 1 k 745 10 612 CHAIN 50 559 TRUCK 57 621 0 5 5 10 CHAIN-TRUCK
4 8 1 53 j 2 Long NA NA 25 Target 1 j 991 5 613 GRAMMAR 4 392 WHISTLE 4 574 0 7 7 14 GRAMMAR-WHISTLE
4 8 1 54 j 1 Short NA NA 3 Target 1 j 769 2 614 THUMB 10 599 ADULT 25 526 0 5 5 10 THUMB-ADULT
4 8 1 55 k 1 Short NA NA 38 RPFoil 1 k 845 6 615 PALM 22 555 ACRE 9 464 0 4 4 8 PALM-ACRE
4 8 1 56 k 1 Long 44 NA NA NewFoil 1 k 687 11 616 KINGDOM 26 494 PLATTER 2 576 0 7 7 14 KINGDOM-PLATTER
4 8 1 57 k 1 Long NA NA 45 RPFoil 1 k 763 7 617 COLONEL 37 552 NECKLACE 3 606 0 7 8 15 COLONEL-NECKLACE
4 8 1 58 k 2 Short NA NA 52 RPFoil 1 k 906 8 618 SINK 23 599 CRIME 34 471 0 4 5 9 SINK-CRIME
4 8 1 59 j 1 Long NA NA 9 Target 1 j 673 3 619 TRUMPET 7 628 JUNCTION 7 502 0 7 8 15 TRUMPET-JUNCTION
4 8 1 60 k 1 Short NA NA 35 RPFoil 1 k 931 6 620 THUMB 10 599 DAIRY 19 537 0 5 5 10 THUMB-DAIRY
4 8 1 61 k 1 Long 30 NA NA NewFoil 1 k 642 11 621 COTTAGE 19 607 MARRIAGE 95 556 13 7 8 15 COTTAGE-MARRIAGE
4 8 1 62 j 2 Short NA NA 22 Target 1 j 1272 4 622 KNOB 2 554 CRIME 34 471 0 4 5 9 KNOB-CRIME
4 8 1 63 k 1 Long NA NA 48 RPFoil 1 k 838 7 623 FOREHEAD 16 596 SPINACH 2 606 0 8 7 15 FOREHEAD-SPINACH
4 8 1 64 j 1 Long NA NA 14 Target 1 j 1114 3 624 MEDICINE 30 551 PASTURE 14 562 0 8 7 15 MEDICINE-PASTURE
4 8 1 65 k 1 Long NA NA 44 RPFoil 1 k 748 7 625 EXPRESS 42 456 JUNCTION 7 502 0 7 8 15 EXPRESS-JUNCTION
4 8 1 66 j 1 Long NA NA 12 Target 1 j 797 3 626 EXPRESS 42 456 HYGIENE 3 459 0 7 7 14 EXPRESS-HYGIENE
4 8 1 67 k 2 Short NA NA 56 RPFoil 1 k 1378 8 627 SINK 23 599 WOOL 10 586 0 4 4 8 SINK-WOOL
4 8 1 68 k 2 Short NA NA 54 RPFoil 1 k 1376 8 628 KNOB 2 554 JELLY 3 590 0 4 5 9 KNOB-JELLY
4 8 1 69 k 1 Long NA NA 41 RPFoil 1 k 1002 7 629 TRUMPET 7 628 TREASON 6 363 0 7 7 14 TRUMPET-TREASON
4 8 1 70 j 2 Short NA NA 17 Target 1 j 1005 4 630 FATE 33 343 CRIME 34 471 3 4 5 9 FATE-CRIME
4 8 1 71 j 1 Short NA NA 6 Target 1 j 1228 2 631 PALM 22 555 DESK 65 574 0 4 4 8 PALM-DESK
4 8 1 72 j 1 Long NA NA 15 Target 1 j 897 3 632 FOUNTAIN 18 602 FLANNEL 4 520 0 8 7 15 FOUNTAIN-FLANNEL
4 8 1 73 k 1 Short NA 13 NA NewFoil 1 k 655 10 633 SHEEP 23 596 BROOM 2 608 0 5 5 10 SHEEP-BROOM
4 8 1 74 k 2 Long NA NA 61 RPFoil 1 k 845 9 634 GRAMMAR 4 392 HIGHWAY 40 581 0 7 7 14 GRAMMAR-HIGHWAY
4 8 1 75 j 1 Long NA NA 11 Target 1 j 1049 3 635 NURSERY 13 542 TREASON 6 363 0 7 7 14 NURSERY-TREASON
4 8 1 76 k 1 Short NA NA 36 RPFoil 1 k 792 6 636 BUMP 5 476 STEEL 45 534 0 4 5 9 BUMP-STEEL
4 8 1 77 k 1 Long 89 NA NA NewFoil 1 k 737 11 637 CAPTAIN 85 497 MEASURE 91 379 5 7 7 14 CAPTAIN-MEASURE
4 8 1 78 k 2 Long NA NA 62 RPFoil 1 k 1683 9 638 DISTRESS 15 443 HIGHWAY 40 581 0 8 7 15 DISTRESS-HIGHWAY
4 8 1 79 j 2 Long NA NA 30 Target 1 j 863 5 639 DISTRESS 15 443 WHISTLE 4 574 1 8 7 15 DISTRESS-WHISTLE
4 8 1 80 k 2 Long NA NA 64 RPFoil 1 k 1004 9 640 SLUMBER 3 500 MONSOON 3 498 0 7 7 14 SLUMBER-MONSOON
4 9 1 1 k 1 Short NA 58 NA NewFoil 1 k 667 10 641 CORAL 5 561 TUBE 31 564 0 5 4 9 CORAL-TUBE
4 9 1 2 k 1 Long 100 NA NA NewFoil 1 k 640 11 642 MISTAKE 34 380 ROUTINE 35 341 0 7 7 14 MISTAKE-ROUTINE
4 9 1 3 j 2 Long NA NA 29 Target 1 j 1005 5 643 GRAMMAR 4 392 MONSOON 3 498 0 7 7 14 GRAMMAR-MONSOON
4 9 1 4 k 2 Long NA NA 59 RPFoil 1 k 1425 9 644 SPEAKER 49 549 WHISTLE 4 574 0 7 7 14 SPEAKER-WHISTLE
4 9 1 5 j 1 Long NA NA 13 Target 1 j 727 3 645 COLONEL 37 552 SPINACH 2 606 0 7 7 14 COLONEL-SPINACH
4 9 1 6 k 1 Long NA NA 43 RPFoil 1 k 1150 7 646 NURSERY 13 542 PASTURE 14 562 4 7 7 14 NURSERY-PASTURE
4 9 1 7 j 2 Short NA NA 21 Target 1 j 858 4 647 FATE 33 343 WOOL 10 586 0 4 4 8 FATE-WOOL
4 9 1 8 k 2 Short NA NA 53 RPFoil 1 k 1895 8 648 FATE 33 343 JELLY 3 590 2 4 5 9 FATE-JELLY
4 9 1 9 k 1 Long 91 NA NA NewFoil 1 k 719 11 649 LECTURE 16 564 KNUCKLE 3 520 0 7 7 14 LECTURE-KNUCKLE
4 9 1 10 k 1 Long 45 NA NA NewFoil 1 k 661 11 650 GODDESS 3 515 MUSTARD 20 599 1 7 7 14 GODDESS-MUSTARD
4 9 1 11 k 1 Short NA 79 NA NewFoil 1 k 543 10 651 SNOW 59 597 STRAW 15 568 11 4 5 9 SNOW-STRAW
4 9 1 12 j 1 Short NA NA 5 Target 1 j 871 2 652 TRAIL 31 525 STEEL 45 534 1 5 5 10 TRAIL-STEEL
4 9 1 13 j 1 Long NA NA 10 Target 1 j 745 3 653 PATIENT 86 526 NECKLACE 3 606 0 7 8 15 PATIENT-NECKLACE
4 9 1 14 k 1 Long 87 NA NA NewFoil 1 k 577 11 654 QUARTER 34 531 PRAIRIE 21 569 0 7 7 14 QUARTER-PRAIRIE
4 9 1 15 k 1 Short NA 49 NA NewFoil 1 k 585 10 655 FORK 14 598 SILK 12 510 0 4 4 8 FORK-SILK
4 9 1 16 j 2 Long NA NA 31 Target 1 j 971 5 656 SPEAKER 49 549 HIGHWAY 40 581 0 7 7 14 SPEAKER-HIGHWAY
4 9 1 17 j 2 Long NA NA 30 Target 1 j 1172 5 657 DISTRESS 15 443 WHISTLE 4 574 1 8 7 15 DISTRESS-WHISTLE
4 9 1 18 j 2 Short NA NA 22 Target 1 j 737 4 658 KNOB 2 554 CRIME 34 471 0 4 5 9 KNOB-CRIME
4 9 1 19 j 2 Short NA NA 18 Target 1 j 806 4 659 KNOB 2 554 FLESH 52 567 0 4 5 9 KNOB-FLESH
4 9 1 20 k 1 Short NA NA 38 RPFoil 1 k 909 6 660 PALM 22 555 ACRE 9 464 0 4 4 8 PALM-ACRE
4 9 1 21 j 2 Long NA NA 32 Target 1 j 993 5 661 SLUMBER 3 500 PACKAGE 20 529 0 7 7 14 SLUMBER-PACKAGE
4 9 1 22 k 1 Short NA NA 34 RPFoil 1 k 782 6 662 MATCH 41 490 DESK 65 574 1 5 4 9 MATCH-DESK
4 9 1 23 k 1 Long NA NA 48 RPFoil 1 k 948 7 663 FOREHEAD 16 596 SPINACH 2 606 0 8 7 15 FOREHEAD-SPINACH
4 9 1 24 k 2 Short NA NA 56 RPFoil 1 k 1512 8 664 SINK 23 599 WOOL 10 586 0 4 4 8 SINK-WOOL
4 9 1 25 k 2 Short NA NA 55 RPFoil 1 k 956 8 665 GATE 37 545 FLESH 52 567 5 4 5 9 GATE-FLESH
4 9 1 26 k 2 Long NA NA 57 RPFoil 1 k 995 9 666 GRAMMAR 4 392 PACKAGE 20 529 0 7 7 14 GRAMMAR-PACKAGE
4 9 1 27 j 1 Long NA NA 14 Target 1 j 1092 3 667 MEDICINE 30 551 PASTURE 14 562 0 8 7 15 MEDICINE-PASTURE
4 9 1 28 j 2 Long NA NA 26 Target 1 j 1067 5 668 DISTRESS 15 443 PACKAGE 20 529 0 8 7 15 DISTRESS-PACKAGE
4 9 1 29 k 2 Long NA NA 58 RPFoil 1 k 995 9 669 DISTRESS 15 443 MONSOON 3 498 0 8 7 15 DISTRESS-MONSOON
4 9 1 30 k 1 Short NA 55 NA NewFoil 1 k 674 10 670 BOLT 10 551 DOLL 10 565 0 4 4 8 BOLT-DOLL
4 9 1 31 j 1 Short NA NA 6 Target 1 j 1149 2 671 PALM 22 555 DESK 65 574 0 4 4 8 PALM-DESK
4 9 1 32 j 1 Short NA NA 7 Target 1 j 694 2 672 BERRY 9 551 ALIEN 16 470 0 5 5 10 BERRY-ALIEN
4 9 1 33 j 1 Long NA NA 15 Target 1 j 675 3 673 FOUNTAIN 18 602 FLANNEL 4 520 0 8 7 15 FOUNTAIN-FLANNEL
4 9 1 34 j 2 Short NA NA 20 Target 1 j 1925 4 674 SINK 23 599 JELLY 3 590 0 4 5 9 SINK-JELLY
4 9 1 35 k 1 Short NA 64 NA NewFoil 1 k 674 10 675 JUDGE 77 558 STOVE 15 592 1 5 5 10 JUDGE-STOVE
4 9 1 36 j 2 Long NA NA 25 Target 1 j 1167 5 676 GRAMMAR 4 392 WHISTLE 4 574 0 7 7 14 GRAMMAR-WHISTLE
4 9 1 37 j 2 Short NA NA 19 Target 1 j 897 4 677 GATE 37 545 WOOL 10 586 2 4 4 8 GATE-WOOL
4 9 1 38 j 2 Short NA NA 24 Target 1 j 809 4 678 SINK 23 599 FLESH 52 567 0 4 5 9 SINK-FLESH
4 9 1 39 k 1 Long 27 NA NA NewFoil 1 k 677 11 679 PAINTER 21 565 HARNESS 10 513 0 7 7 14 PAINTER-HARNESS
4 9 1 40 k 1 Short NA 67 NA NewFoil 1 k 702 10 680 MEDAL 7 529 VEIL 8 516 0 5 4 9 MEDAL-VEIL
4 9 1 41 j 2 Long NA NA 28 Target 1 j 1104 5 681 SLUMBER 3 500 HIGHWAY 40 581 0 7 7 14 SLUMBER-HIGHWAY
4 9 1 42 j 1 Short NA NA 4 Target 1 j 793 2 682 BUMP 5 476 CIGAR 10 619 0 4 5 9 BUMP-CIGAR
4 9 1 43 k 1 Long NA NA 46 RPFoil 1 k 857 7 683 MEDICINE 30 551 FLANNEL 4 520 0 8 7 15 MEDICINE-FLANNEL
4 9 1 44 k 1 Long 74 NA NA NewFoil 1 k 656 11 684 SCHOLAR 15 451 STRANGER 40 454 1 7 8 15 SCHOLAR-STRANGER
4 9 1 45 j 2 Short NA NA 23 Target 1 j 1863 4 685 GATE 37 545 JELLY 3 590 1 4 5 9 GATE-JELLY
4 9 1 46 k 2 Long NA NA 61 RPFoil 1 k 1244 9 686 GRAMMAR 4 392 HIGHWAY 40 581 0 7 7 14 GRAMMAR-HIGHWAY
4 9 1 47 k 1 Long NA NA 41 RPFoil 1 k 788 7 687 TRUMPET 7 628 TREASON 6 363 0 7 7 14 TRUMPET-TREASON
4 9 1 48 k 2 Long NA NA 64 RPFoil 1 k 1094 9 688 SLUMBER 3 500 MONSOON 3 498 0 7 7 14 SLUMBER-MONSOON
4 9 1 49 k 2 Short NA NA 49 RPFoil 1 k 1019 8 689 FATE 33 343 FLESH 52 567 3 4 5 9 FATE-FLESH
4 9 1 50 k 2 Long NA NA 62 RPFoil 1 k 930 9 690 DISTRESS 15 443 HIGHWAY 40 581 0 8 7 15 DISTRESS-HIGHWAY
4 9 1 51 k 1 Long NA NA 45 RPFoil 1 k 745 7 691 COLONEL 37 552 NECKLACE 3 606 0 7 8 15 COLONEL-NECKLACE
4 9 1 52 k 2 Short NA NA 52 RPFoil 1 k 1048 8 692 SINK 23 599 CRIME 34 471 0 4 5 9 SINK-CRIME
4 9 1 53 k 1 Long NA NA 42 RPFoil 1 k 709 7 693 PATIENT 86 526 WELCOME 50 470 9 7 7 14 PATIENT-WELCOME
4 9 1 54 j 1 Short NA NA 3 Target 1 j 917 2 694 THUMB 10 599 ADULT 25 526 0 5 5 10 THUMB-ADULT
4 9 1 55 k 1 Long NA NA 47 RPFoil 1 k 1284 7 695 FOUNTAIN 18 602 HYGIENE 3 459 0 8 7 15 FOUNTAIN-HYGIENE
4 9 1 56 k 1 Short NA 102 NA NewFoil 1 k 621 10 696 CROSS 55 501 DRINK 82 553 17 5 5 10 CROSS-DRINK
4 9 1 57 k 1 Short NA NA 37 RPFoil 1 k 695 6 697 TRAIL 31 525 RANCH 27 519 0 5 5 10 TRAIL-RANCH
4 9 1 58 k 1 Short NA NA 39 RPFoil 1 k 761 6 698 BERRY 9 551 CIGAR 10 619 0 5 5 10 BERRY-CIGAR
4 9 1 59 j 1 Long NA NA 12 Target 1 j 1073 3 699 EXPRESS 42 456 HYGIENE 3 459 0 7 7 14 EXPRESS-HYGIENE
4 9 1 60 k 1 Long NA NA 44 RPFoil 1 k 689 7 700 EXPRESS 42 456 JUNCTION 7 502 0 7 8 15 EXPRESS-JUNCTION
4 9 1 61 j 1 Short NA NA 2 Target 1 j 1708 2 701 MATCH 41 490 ACRE 9 464 0 5 4 9 MATCH-ACRE
4 9 1 62 k 2 Short NA NA 51 RPFoil 1 k 1114 8 702 GATE 37 545 CRIME 34 471 1 4 5 9 GATE-CRIME
4 9 1 63 k 1 Short NA NA 40 RPFoil 1 k 737 6 703 SWAMP 5 600 ALIEN 16 470 0 5 5 10 SWAMP-ALIEN
4 9 1 64 k 1 Short NA NA 33 RPFoil 1 k 928 6 704 FUSE 5 479 ADULT 25 526 0 4 5 9 FUSE-ADULT
4 9 1 65 j 1 Short NA NA 1 Target 1 j 653 2 705 FUSE 5 479 DAIRY 19 537 0 4 5 9 FUSE-DAIRY
4 9 1 66 k 2 Short NA NA 50 RPFoil 1 k 1160 8 706 KNOB 2 554 WOOL 10 586 0 4 4 8 KNOB-WOOL
4 9 1 67 k 1 Short NA 43 NA NewFoil 1 k 635 10 707 TENT 20 593 CHALK 3 601 1 4 5 9 TENT-CHALK
4 9 1 68 j 1 Long NA NA 16 Target 1 j 860 3 708 FOREHEAD 16 596 WELCOME 50 470 1 8 7 15 FOREHEAD-WELCOME
4 9 1 69 k 2 Long NA NA 60 RPFoil 1 k 1206 9 709 SLUMBER 3 500 WHISTLE 4 574 0 7 7 14 SLUMBER-WHISTLE
4 9 1 70 k 1 Short NA NA 36 RPFoil 1 k 737 6 710 BUMP 5 476 STEEL 45 534 0 4 5 9 BUMP-STEEL
4 9 1 71 k 1 Long 16 NA NA NewFoil 1 k 657 11 711 BUILDER 29 551 SHORTAGE 16 405 0 7 8 15 BUILDER-SHORTAGE
4 9 1 72 j 1 Long NA NA 9 Target 0 k 874 3 712 TRUMPET 7 628 JUNCTION 7 502 0 7 8 15 TRUMPET-JUNCTION
4 9 1 73 j 2 Long NA NA 27 Target 1 j 1085 5 713 SPEAKER 49 549 MONSOON 3 498 0 7 7 14 SPEAKER-MONSOON
4 9 1 74 j 1 Short NA NA 8 Target 1 j 1083 2 714 SWAMP 5 600 RANCH 27 519 0 5 5 10 SWAMP-RANCH
4 9 1 75 k 2 Long NA NA 63 RPFoil 1 k 1240 9 715 SPEAKER 49 549 PACKAGE 20 529 0 7 7 14 SPEAKER-PACKAGE
4 9 1 76 j 1 Long NA NA 11 Target 1 j 1108 3 716 NURSERY 13 542 TREASON 6 363 0 7 7 14 NURSERY-TREASON
4 9 1 77 k 1 Short NA NA 35 RPFoil 1 k 1119 6 717 THUMB 10 599 DAIRY 19 537 0 5 5 10 THUMB-DAIRY
4 9 1 78 j 2 Short NA NA 17 Target 1 j 1016 4 718 FATE 33 343 CRIME 34 471 3 4 5 9 FATE-CRIME
4 9 1 79 k 2 Short NA NA 54 RPFoil 1 k 1173 8 719 KNOB 2 554 JELLY 3 590 0 4 5 9 KNOB-JELLY
4 9 1 80 k 1 Long 6 NA NA NewFoil 1 k 685 11 720 EXHAUST 7 520 SEAWEED 3 590 0 7 7 14 EXHAUST-SEAWEED
4 10 1 1 k 1 Short NA 91 NA NewFoil 1 k 649 10 721 ITEM 54 369 LOAN 46 430 0 4 4 8 ITEM-LOAN
4 10 1 2 j 1 Long NA NA 11 Target 1 j 726 3 722 NURSERY 13 542 TREASON 6 363 0 7 7 14 NURSERY-TREASON
4 10 1 3 k 2 Short NA NA 53 RPFoil 1 k 1338 8 723 FATE 33 343 JELLY 3 590 2 4 5 9 FATE-JELLY
4 10 1 4 j 2 Long NA NA 32 Target 1 j 1150 5 724 SLUMBER 3 500 PACKAGE 20 529 0 7 7 14 SLUMBER-PACKAGE
4 10 1 5 k 1 Short NA 22 NA NewFoil 1 k 594 10 725 PILL 15 580 FILM 96 562 0 4 4 8 PILL-FILM
4 10 1 6 j 1 Long NA NA 16 Target 1 j 716 3 726 FOREHEAD 16 596 WELCOME 50 470 1 8 7 15 FOREHEAD-WELCOME
4 10 1 7 j 2 Short NA NA 23 Target 1 j 1208 4 727 GATE 37 545 JELLY 3 590 1 4 5 9 GATE-JELLY
4 10 1 8 k 1 Long 48 NA NA NewFoil 1 k 698 11 728 FOOTSTEP 3 526 LAUGHTER 22 613 0 8 8 16 FOOTSTEP-LAUGHTER
4 10 1 9 k 1 Short NA 97 NA NewFoil 1 k 608 10 729 BASE 91 436 STICK 39 517 3 4 5 9 BASE-STICK
4 10 1 10 j 2 Short NA NA 18 Target 1 j 1576 4 730 KNOB 2 554 FLESH 52 567 0 4 5 9 KNOB-FLESH
4 10 1 11 k 1 Long NA NA 43 RPFoil 1 k 1143 7 731 NURSERY 13 542 PASTURE 14 562 4 7 7 14 NURSERY-PASTURE
4 10 1 12 k 2 Long NA NA 58 RPFoil 1 k 907 9 732 DISTRESS 15 443 MONSOON 3 498 0 8 7 15 DISTRESS-MONSOON
4 10 1 13 k 1 Short NA 31 NA NewFoil 1 k 601 10 733 ECHO 10 556 EXIT 7 512 0 4 4 8 ECHO-EXIT
4 10 1 14 j 1 Long NA NA 12 Target 1 j 895 3 734 EXPRESS 42 456 HYGIENE 3 459 0 7 7 14 EXPRESS-HYGIENE
4 10 1 15 j 2 Short NA NA 24 Target 1 j 1219 4 735 SINK 23 599 FLESH 52 567 0 4 5 9 SINK-FLESH
4 10 1 16 j 2 Long NA NA 31 Target 1 j 984 5 736 SPEAKER 49 549 HIGHWAY 40 581 0 7 7 14 SPEAKER-HIGHWAY
4 10 1 17 k 1 Short NA NA 36 RPFoil 1 k 779 6 737 BUMP 5 476 STEEL 45 534 0 4 5 9 BUMP-STEEL
4 10 1 18 k 1 Short NA 60 NA NewFoil 1 k 647 10 738 PIPE 20 598 HOOD 7 558 0 4 4 8 PIPE-HOOD
4 10 1 19 k 1 Long 92 NA NA NewFoil 1 k 702 11 739 BLISTER 3 616 SEGMENT 10 480 0 7 7 14 BLISTER-SEGMENT
4 10 1 20 j 1 Long NA NA 10 Target 1 j 1139 3 740 PATIENT 86 526 NECKLACE 3 606 0 7 8 15 PATIENT-NECKLACE
4 10 1 21 k 1 Short NA 95 NA NewFoil 1 k 651 10 741 MAZE 6 555 ARCH 13 557 0 4 4 8 MAZE-ARCH
4 10 1 22 j 2 Short NA NA 17 Target 1 j 937 4 742 FATE 33 343 CRIME 34 471 3 4 5 9 FATE-CRIME
4 10 1 23 k 1 Short NA NA 35 RPFoil 1 k 895 6 743 THUMB 10 599 DAIRY 19 537 0 5 5 10 THUMB-DAIRY
4 10 1 24 k 1 Long 57 NA NA NewFoil 1 k 707 11 744 DUNGEON 2 579 MOUNTAIN 33 629 1 7 8 15 DUNGEON-MOUNTAIN
4 10 1 25 k 1 Short NA NA 34 RPFoil 1 k 824 6 745 MATCH 41 490 DESK 65 574 1 5 4 9 MATCH-DESK
4 10 1 26 j 2 Short NA NA 19 Target 1 j 1255 4 746 GATE 37 545 WOOL 10 586 2 4 4 8 GATE-WOOL
4 10 1 27 k 1 Long NA NA 47 RPFoil 1 k 918 7 747 FOUNTAIN 18 602 HYGIENE 3 459 0 8 7 15 FOUNTAIN-HYGIENE
4 10 1 28 j 1 Long NA NA 15 Target 1 j 901 3 748 FOUNTAIN 18 602 FLANNEL 4 520 0 8 7 15 FOUNTAIN-FLANNEL
4 10 1 29 k 2 Short NA NA 56 RPFoil 1 k 1127 8 749 SINK 23 599 WOOL 10 586 0 4 4 8 SINK-WOOL
4 10 1 30 k 1 Short NA NA 37 RPFoil 1 k 687 6 750 TRAIL 31 525 RANCH 27 519 0 5 5 10 TRAIL-RANCH
4 10 1 31 j 1 Long NA NA 13 Target 1 j 824 3 751 COLONEL 37 552 SPINACH 2 606 0 7 7 14 COLONEL-SPINACH
4 10 1 32 j 1 Long NA NA 14 Target 1 j 1345 3 752 MEDICINE 30 551 PASTURE 14 562 0 8 7 15 MEDICINE-PASTURE
4 10 1 33 k 2 Long NA NA 60 RPFoil 1 k 1356 9 753 SLUMBER 3 500 WHISTLE 4 574 0 7 7 14 SLUMBER-WHISTLE
4 10 1 34 j 2 Long NA NA 25 Target 1 j 1226 5 754 GRAMMAR 4 392 WHISTLE 4 574 0 7 7 14 GRAMMAR-WHISTLE
4 10 1 35 k 1 Short NA NA 40 RPFoil 1 k 849 6 755 SWAMP 5 600 ALIEN 16 470 0 5 5 10 SWAMP-ALIEN
4 10 1 36 k 1 Short NA NA 39 RPFoil 1 k 923 6 756 BERRY 9 551 CIGAR 10 619 0 5 5 10 BERRY-CIGAR
4 10 1 37 j 1 Short NA NA 6 Target 1 j 791 2 757 PALM 22 555 DESK 65 574 0 4 4 8 PALM-DESK
4 10 1 38 k 1 Short NA 56 NA NewFoil 1 k 678 10 758 BRAKE 2 511 TACK 4 546 0 5 4 9 BRAKE-TACK
4 10 1 39 k 1 Long NA NA 44 RPFoil 1 k 903 7 759 EXPRESS 42 456 JUNCTION 7 502 0 7 8 15 EXPRESS-JUNCTION
4 10 1 40 j 1 Short NA NA 5 Target 1 j 973 2 760 TRAIL 31 525 STEEL 45 534 1 5 5 10 TRAIL-STEEL
4 10 1 41 k 1 Long NA NA 42 RPFoil 1 k 835 7 761 PATIENT 86 526 WELCOME 50 470 9 7 7 14 PATIENT-WELCOME
4 10 1 42 k 1 Short NA 94 NA NewFoil 1 k 605 10 762 TAIL 24 551 CHART 22 531 0 4 5 9 TAIL-CHART
4 10 1 43 k 1 Long NA NA 45 RPFoil 1 k 805 7 763 COLONEL 37 552 NECKLACE 3 606 0 7 8 15 COLONEL-NECKLACE
4 10 1 44 k 1 Long 82 NA NA NewFoil 1 k 746 11 764 WHISKEY 17 592 BOULDER 10 614 0 7 7 14 WHISKEY-BOULDER
4 10 1 45 j 2 Long NA NA 29 Target 1 j 1079 5 765 GRAMMAR 4 392 MONSOON 3 498 0 7 7 14 GRAMMAR-MONSOON
4 10 1 46 k 2 Long NA NA 62 RPFoil 1 k 869 9 766 DISTRESS 15 443 HIGHWAY 40 581 0 8 7 15 DISTRESS-HIGHWAY
4 10 1 47 j 2 Short NA NA 22 Target 1 j 770 4 767 KNOB 2 554 CRIME 34 471 0 4 5 9 KNOB-CRIME
4 10 1 48 k 1 Long NA NA 48 RPFoil 1 k 814 7 768 FOREHEAD 16 596 SPINACH 2 606 0 8 7 15 FOREHEAD-SPINACH
4 10 1 49 k 1 Long NA NA 41 RPFoil 1 k 742 7 769 TRUMPET 7 628 TREASON 6 363 0 7 7 14 TRUMPET-TREASON
4 10 1 50 k 2 Short NA NA 50 RPFoil 1 k 1018 8 770 KNOB 2 554 WOOL 10 586 0 4 4 8 KNOB-WOOL
4 10 1 51 k 2 Long NA NA 59 RPFoil 1 k 1043 9 771 SPEAKER 49 549 WHISTLE 4 574 0 7 7 14 SPEAKER-WHISTLE
4 10 1 52 k 2 Long NA NA 57 RPFoil 0 j 955 9 772 GRAMMAR 4 392 PACKAGE 20 529 0 7 7 14 GRAMMAR-PACKAGE
4 10 1 53 k 2 Long NA NA 63 RPFoil 1 k 1343 9 773 SPEAKER 49 549 PACKAGE 20 529 0 7 7 14 SPEAKER-PACKAGE
4 10 1 54 k 2 Long NA NA 64 RPFoil 1 k 1168 9 774 SLUMBER 3 500 MONSOON 3 498 0 7 7 14 SLUMBER-MONSOON
4 10 1 55 k 2 Short NA NA 54 RPFoil 1 k 2034 8 775 KNOB 2 554 JELLY 3 590 0 4 5 9 KNOB-JELLY
4 10 1 56 k 2 Short NA NA 52 RPFoil 1 k 1136 8 776 SINK 23 599 CRIME 34 471 0 4 5 9 SINK-CRIME
4 10 1 57 k 1 Long 34 NA NA NewFoil 1 k 814 11 777 DISEASE 53 487 NEUTRAL 39 300 0 7 7 14 DISEASE-NEUTRAL
4 10 1 58 j 1 Short NA NA 3 Target 1 j 781 2 778 THUMB 10 599 ADULT 25 526 0 5 5 10 THUMB-ADULT
4 10 1 59 j 1 Short NA NA 1 Target 1 j 1166 2 779 FUSE 5 479 DAIRY 19 537 0 4 5 9 FUSE-DAIRY
4 10 1 60 k 2 Short NA NA 49 RPFoil 1 k 894 8 780 FATE 33 343 FLESH 52 567 3 4 5 9 FATE-FLESH
4 10 1 61 k 1 Long 81 NA NA NewFoil 1 k 626 11 781 SULPHUR 3 561 CHLORINE 33 480 0 7 8 15 SULPHUR-CHLORINE
4 10 1 62 j 2 Short NA NA 20 Target 0 k 1105 4 782 SINK 23 599 JELLY 3 590 0 4 5 9 SINK-JELLY
4 10 1 63 j 1 Short NA NA 8 Target 1 j 803 2 783 SWAMP 5 600 RANCH 27 519 0 5 5 10 SWAMP-RANCH
4 10 1 64 k 1 Short NA NA 33 RPFoil 1 k 812 6 784 FUSE 5 479 ADULT 25 526 0 4 5 9 FUSE-ADULT
4 10 1 65 j 1 Short NA NA 2 Target 1 j 736 2 785 MATCH 41 490 ACRE 9 464 0 5 4 9 MATCH-ACRE
4 10 1 66 k 1 Long NA NA 46 RPFoil 1 k 1180 7 786 MEDICINE 30 551 FLANNEL 4 520 0 8 7 15 MEDICINE-FLANNEL
4 10 1 67 k 1 Long 35 NA NA NewFoil 1 k 665 11 787 VILLAGE 72 578 CEILING 31 557 0 7 7 14 VILLAGE-CEILING
4 10 1 68 j 2 Short NA NA 21 Target 1 j 1052 4 788 FATE 33 343 WOOL 10 586 0 4 4 8 FATE-WOOL
4 10 1 69 j 1 Short NA NA 7 Target 1 j 1193 2 789 BERRY 9 551 ALIEN 16 470 0 5 5 10 BERRY-ALIEN
4 10 1 70 j 2 Long NA NA 26 Target 1 j 892 5 790 DISTRESS 15 443 PACKAGE 20 529 0 8 7 15 DISTRESS-PACKAGE
4 10 1 71 j 2 Long NA NA 27 Target 1 j 935 5 791 SPEAKER 49 549 MONSOON 3 498 0 7 7 14 SPEAKER-MONSOON
4 10 1 72 j 1 Long NA NA 9 Target 1 j 730 3 792 TRUMPET 7 628 JUNCTION 7 502 0 7 8 15 TRUMPET-JUNCTION
4 10 1 73 j 2 Long NA NA 28 Target 1 j 1139 5 793 SLUMBER 3 500 HIGHWAY 40 581 0 7 7 14 SLUMBER-HIGHWAY
4 10 1 74 j 2 Long NA NA 30 Target 1 j 832 5 794 DISTRESS 15 443 WHISTLE 4 574 1 8 7 15 DISTRESS-WHISTLE
4 10 1 75 k 1 Short NA NA 38 RPFoil 1 k 827 6 795 PALM 22 555 ACRE 9 464 0 4 4 8 PALM-ACRE
4 10 1 76 k 2 Short NA NA 55 RPFoil 1 k 1626 8 796 GATE 37 545 FLESH 52 567 5 4 5 9 GATE-FLESH
4 10 1 77 k 2 Short NA NA 51 RPFoil 1 k 897 8 797 GATE 37 545 CRIME 34 471 1 4 5 9 GATE-CRIME
4 10 1 78 k 2 Long NA NA 61 RPFoil 1 k 956 9 798 GRAMMAR 4 392 HIGHWAY 40 581 0 7 7 14 GRAMMAR-HIGHWAY
4 10 1 79 j 1 Short NA NA 4 Target 1 j 886 2 799 BUMP 5 476 CIGAR 10 619 0 4 5 9 BUMP-CIGAR
4 10 1 80 k 1 Long 52 NA NA NewFoil 1 k 725 11 800 SERGEANT 28 549 MANSION 8 628 0 8 7 15 SERGEANT-MANSION
4 11 1 1 k 1 Long 94 NA NA NewFoil 1 k 644 11 801 DWELLER 2 448 PRESENCE 76 339 0 7 8 15 DWELLER-PRESENCE
4 11 1 2 j 1 Long NA NA 13 Target 1 j 718 3 802 COLONEL 37 552 SPINACH 2 606 0 7 7 14 COLONEL-SPINACH
4 11 1 3 j 1 Short NA NA 1 Target 1 j 775 2 803 FUSE 5 479 DAIRY 19 537 0 4 5 9 FUSE-DAIRY
4 11 1 4 k 1 Short NA NA 33 RPFoil 1 k 734 6 804 FUSE 5 479 ADULT 25 526 0 4 5 9 FUSE-ADULT
4 11 1 5 k 1 Long 28 NA NA NewFoil 1 k 621 11 805 CHARTER 33 406 COCKTAIL 25 604 0 7 8 15 CHARTER-COCKTAIL
4 11 1 6 j 1 Long NA NA 15 Target 1 j 770 3 806 FOUNTAIN 18 602 FLANNEL 4 520 0 8 7 15 FOUNTAIN-FLANNEL
4 11 1 7 k 2 Short NA NA 56 RPFoil 1 k 1363 8 807 SINK 23 599 WOOL 10 586 0 4 4 8 SINK-WOOL
4 11 1 8 k 1 Short NA 41 NA NewFoil 1 k 682 10 808 BLOCK 66 483 ARRAY 11 365 0 5 5 10 BLOCK-ARRAY
4 11 1 9 j 1 Short NA NA 7 Target 1 j 874 2 809 BERRY 9 551 ALIEN 16 470 0 5 5 10 BERRY-ALIEN
4 11 1 10 j 2 Long NA NA 26 Target 1 j 922 5 810 DISTRESS 15 443 PACKAGE 20 529 0 8 7 15 DISTRESS-PACKAGE
4 11 1 11 j 1 Short NA NA 6 Target 1 j 774 2 811 PALM 22 555 DESK 65 574 0 4 4 8 PALM-DESK
4 11 1 12 j 2 Short NA NA 20 Target 1 j 1117 4 812 SINK 23 599 JELLY 3 590 0 4 5 9 SINK-JELLY
4 11 1 13 k 2 Short NA NA 49 RPFoil 1 k 1295 8 813 FATE 33 343 FLESH 52 567 3 4 5 9 FATE-FLESH
4 11 1 14 k 1 Long NA NA 47 RPFoil 1 k 828 7 814 FOUNTAIN 18 602 HYGIENE 3 459 0 8 7 15 FOUNTAIN-HYGIENE
4 11 1 15 k 2 Short NA NA 55 RPFoil 1 k 1115 8 815 GATE 37 545 FLESH 52 567 5 4 5 9 GATE-FLESH
4 11 1 16 j 2 Short NA NA 23 Target 1 j 740 4 816 GATE 37 545 JELLY 3 590 1 4 5 9 GATE-JELLY
4 11 1 17 k 2 Short NA NA 51 RPFoil 1 k 807 8 817 GATE 37 545 CRIME 34 471 1 4 5 9 GATE-CRIME
4 11 1 18 k 1 Short NA 80 NA NewFoil 1 k 751 10 818 GUEST 39 497 DRUM 11 599 0 5 4 9 GUEST-DRUM
4 11 1 19 k 1 Long 42 NA NA NewFoil 1 k 639 11 819 CHICKEN 37 619 HOSTAGE 2 536 0 7 7 14 CHICKEN-HOSTAGE
4 11 1 20 k 1 Short NA NA 39 RPFoil 1 k 854 6 820 BERRY 9 551 CIGAR 10 619 0 5 5 10 BERRY-CIGAR
4 11 1 21 j 2 Short NA NA 18 Target 1 j 1087 4 821 KNOB 2 554 FLESH 52 567 0 4 5 9 KNOB-FLESH
4 11 1 22 k 1 Short NA NA 34 RPFoil 1 k 823 6 822 MATCH 41 490 DESK 65 574 1 5 4 9 MATCH-DESK
4 11 1 23 j 1 Long NA NA 9 Target 1 j 911 3 823 TRUMPET 7 628 JUNCTION 7 502 0 7 8 15 TRUMPET-JUNCTION
4 11 1 24 k 1 Long NA NA 41 RPFoil 1 k 807 7 824 TRUMPET 7 628 TREASON 6 363 0 7 7 14 TRUMPET-TREASON
4 11 1 25 j 2 Long NA NA 29 Target 1 j 850 5 825 GRAMMAR 4 392 MONSOON 3 498 0 7 7 14 GRAMMAR-MONSOON
4 11 1 26 k 1 Short NA NA 36 RPFoil 1 k 752 6 826 BUMP 5 476 STEEL 45 534 0 4 5 9 BUMP-STEEL
4 11 1 27 j 2 Short NA NA 24 Target 1 j 1076 4 827 SINK 23 599 FLESH 52 567 0 4 5 9 SINK-FLESH
4 11 1 28 j 2 Long NA NA 32 Target 1 j 1154 5 828 SLUMBER 3 500 PACKAGE 20 529 0 7 7 14 SLUMBER-PACKAGE
4 11 1 29 j 1 Short NA NA 3 Target 1 j 798 2 829 THUMB 10 599 ADULT 25 526 0 5 5 10 THUMB-ADULT
4 11 1 30 k 2 Long NA NA 59 RPFoil 1 k 955 9 830 SPEAKER 49 549 WHISTLE 4 574 0 7 7 14 SPEAKER-WHISTLE
4 11 1 31 k 1 Long 7 NA NA NewFoil 1 k 682 11 831 GLITTER 5 503 DISPLAY 41 453 0 7 7 14 GLITTER-DISPLAY
4 11 1 32 j 1 Long NA NA 14 Target 1 j 996 3 832 MEDICINE 30 551 PASTURE 14 562 0 8 7 15 MEDICINE-PASTURE
4 11 1 33 j 2 Long NA NA 30 Target 0 k 1057 5 833 DISTRESS 15 443 WHISTLE 4 574 1 8 7 15 DISTRESS-WHISTLE
4 11 1 34 j 2 Long NA NA 27 Target 1 j 851 5 834 SPEAKER 49 549 MONSOON 3 498 0 7 7 14 SPEAKER-MONSOON
4 11 1 35 k 1 Short NA 37 NA NewFoil 1 k 1068 10 835 BOSS 20 554 TOKEN 10 416 0 4 5 9 BOSS-TOKEN
4 11 1 36 j 2 Long NA NA 31 Target 1 j 1072 5 836 SPEAKER 49 549 HIGHWAY 40 581 0 7 7 14 SPEAKER-HIGHWAY
4 11 1 37 j 2 Short NA NA 21 Target 1 j 991 4 837 FATE 33 343 WOOL 10 586 0 4 4 8 FATE-WOOL
4 11 1 38 j 1 Long NA NA 10 Target 1 j 802 3 838 PATIENT 86 526 NECKLACE 3 606 0 7 8 15 PATIENT-NECKLACE
4 11 1 39 k 2 Short NA NA 52 RPFoil 1 k 1142 8 839 SINK 23 599 CRIME 34 471 0 4 5 9 SINK-CRIME
4 11 1 40 k 1 Long NA NA 45 RPFoil 1 k 849 7 840 COLONEL 37 552 NECKLACE 3 606 0 7 8 15 COLONEL-NECKLACE
4 11 1 41 k 1 Long NA NA 46 RPFoil 1 k 1019 7 841 MEDICINE 30 551 FLANNEL 4 520 0 8 7 15 MEDICINE-FLANNEL
4 11 1 42 j 2 Short NA NA 17 Target 1 j 1728 4 842 FATE 33 343 CRIME 34 471 3 4 5 9 FATE-CRIME
4 11 1 43 j 1 Short NA NA 2 Target 1 j 917 2 843 MATCH 41 490 ACRE 9 464 0 5 4 9 MATCH-ACRE
4 11 1 44 k 1 Short NA 63 NA NewFoil 1 k 627 10 844 LACE 7 506 GIFT 33 553 7 4 4 8 LACE-GIFT
4 11 1 45 j 1 Long NA NA 16 Target 1 j 763 3 845 FOREHEAD 16 596 WELCOME 50 470 1 8 7 15 FOREHEAD-WELCOME
4 11 1 46 k 1 Long NA NA 48 RPFoil 1 k 2119 7 846 FOREHEAD 16 596 SPINACH 2 606 0 8 7 15 FOREHEAD-SPINACH
4 11 1 47 k 2 Long NA NA 62 RPFoil 1 k 948 9 847 DISTRESS 15 443 HIGHWAY 40 581 0 8 7 15 DISTRESS-HIGHWAY
4 11 1 48 k 2 Short NA NA 50 RPFoil 1 k 1154 8 848 KNOB 2 554 WOOL 10 586 0 4 4 8 KNOB-WOOL
4 11 1 49 j 1 Long NA NA 12 Target 1 j 1118 3 849 EXPRESS 42 456 HYGIENE 3 459 0 7 7 14 EXPRESS-HYGIENE
4 11 1 50 j 2 Short NA NA 22 Target 1 j 963 4 850 KNOB 2 554 CRIME 34 471 0 4 5 9 KNOB-CRIME
4 11 1 51 k 2 Long NA NA 58 RPFoil 1 k 1077 9 851 DISTRESS 15 443 MONSOON 3 498 0 8 7 15 DISTRESS-MONSOON
4 11 1 52 k 1 Short NA NA 37 RPFoil 1 k 685 6 852 TRAIL 31 525 RANCH 27 519 0 5 5 10 TRAIL-RANCH
4 11 1 53 j 1 Long NA NA 11 Target 1 j 1416 3 853 NURSERY 13 542 TREASON 6 363 0 7 7 14 NURSERY-TREASON
4 11 1 54 j 2 Long NA NA 25 Target 1 j 1033 5 854 GRAMMAR 4 392 WHISTLE 4 574 0 7 7 14 GRAMMAR-WHISTLE
4 11 1 55 k 1 Long 102 NA NA NewFoil 1 k 804 11 855 MILEAGE 15 460 SUNBURN 5 629 0 7 7 14 MILEAGE-SUNBURN
4 11 1 56 k 2 Long NA NA 60 RPFoil 1 k 1013 9 856 SLUMBER 3 500 WHISTLE 4 574 0 7 7 14 SLUMBER-WHISTLE
4 11 1 57 k 1 Short NA 65 NA NewFoil 1 k 679 10 857 DEBT 13 384 MOTOR 56 521 0 4 5 9 DEBT-MOTOR
4 11 1 58 k 1 Long NA NA 44 RPFoil 1 k 825 7 858 EXPRESS 42 456 JUNCTION 7 502 0 7 8 15 EXPRESS-JUNCTION
4 11 1 59 k 2 Long NA NA 63 RPFoil 1 k 921 9 859 SPEAKER 49 549 PACKAGE 20 529 0 7 7 14 SPEAKER-PACKAGE
4 11 1 60 k 1 Long 36 NA NA NewFoil 1 k 635 11 860 CONCERT 39 578 ROMANCE 13 551 0 7 7 14 CONCERT-ROMANCE
4 11 1 61 k 1 Short NA 50 NA NewFoil 1 k 731 10 861 WAIST 11 530 ANGEL 18 554 1 5 5 10 WAIST-ANGEL
4 11 1 62 k 2 Long NA NA 57 RPFoil 1 k 1938 9 862 GRAMMAR 4 392 PACKAGE 20 529 0 7 7 14 GRAMMAR-PACKAGE
4 11 1 63 k 1 Long 83 NA NA NewFoil 1 k 725 11 863 FASHION 69 474 FAREWELL 14 466 3 7 8 15 FASHION-FAREWELL
4 11 1 64 k 1 Short NA NA 40 RPFoil 1 k 962 6 864 SWAMP 5 600 ALIEN 16 470 0 5 5 10 SWAMP-ALIEN
4 11 1 65 k 2 Long NA NA 64 RPFoil 1 k 1184 9 865 SLUMBER 3 500 MONSOON 3 498 0 7 7 14 SLUMBER-MONSOON
4 11 1 66 j 1 Short NA NA 5 Target 1 j 794 2 866 TRAIL 31 525 STEEL 45 534 1 5 5 10 TRAIL-STEEL
4 11 1 67 k 1 Short NA 39 NA NewFoil 1 k 685 10 867 SODA 3 544 LEAF 12 608 0 4 4 8 SODA-LEAF
4 11 1 68 k 1 Short NA NA 38 RPFoil 1 k 1314 6 868 PALM 22 555 ACRE 9 464 0 4 4 8 PALM-ACRE
4 11 1 69 k 2 Short NA NA 54 RPFoil 1 k 982 8 869 KNOB 2 554 JELLY 3 590 0 4 5 9 KNOB-JELLY
4 11 1 70 j 2 Long NA NA 28 Target 1 j 1111 5 870 SLUMBER 3 500 HIGHWAY 40 581 0 7 7 14 SLUMBER-HIGHWAY
4 11 1 71 k 1 Long NA NA 42 RPFoil 1 k 1076 7 871 PATIENT 86 526 WELCOME 50 470 9 7 7 14 PATIENT-WELCOME
4 11 1 72 k 1 Short NA NA 35 RPFoil 1 k 1396 6 872 THUMB 10 599 DAIRY 19 537 0 5 5 10 THUMB-DAIRY
4 11 1 73 k 1 Short NA 100 NA NewFoil 1 k 743 10 873 HOLE 58 527 SHOE 14 601 1 4 4 8 HOLE-SHOE
4 11 1 74 k 2 Long NA NA 61 RPFoil 1 k 1024 9 874 GRAMMAR 4 392 HIGHWAY 40 581 0 7 7 14 GRAMMAR-HIGHWAY
4 11 1 75 j 2 Short NA NA 19 Target 1 j 1470 4 875 GATE 37 545 WOOL 10 586 2 4 4 8 GATE-WOOL
4 11 1 76 k 1 Long 86 NA NA NewFoil 1 k 698 11 876 PADLOCK 2 523 WHISPER 12 567 0 7 7 14 PADLOCK-WHISPER
4 11 1 77 k 1 Long NA NA 43 RPFoil 1 k 2218 7 877 NURSERY 13 542 PASTURE 14 562 4 7 7 14 NURSERY-PASTURE
4 11 1 78 j 1 Short NA NA 8 Target 1 j 1021 2 878 SWAMP 5 600 RANCH 27 519 0 5 5 10 SWAMP-RANCH
4 11 1 79 k 2 Short NA NA 53 RPFoil 1 k 1452 8 879 FATE 33 343 JELLY 3 590 2 4 5 9 FATE-JELLY
4 11 1 80 j 1 Short NA NA 4 Target 1 j 949 2 880 BUMP 5 476 CIGAR 10 619 0 4 5 9 BUMP-CIGAR
4 12 1 1 k 1 Long NA NA 41 RPFoil 1 k 965 7 881 TRUMPET 7 628 TREASON 6 363 0 7 7 14 TRUMPET-TREASON
4 12 1 2 k 1 Long NA NA 48 RPFoil 1 k 841 7 882 FOREHEAD 16 596 SPINACH 2 606 0 8 7 15 FOREHEAD-SPINACH
4 12 1 3 k 1 Long NA NA 43 RPFoil 1 k 1148 7 883 NURSERY 13 542 PASTURE 14 562 4 7 7 14 NURSERY-PASTURE
4 12 1 4 j 2 Short NA NA 22 Target 1 j 969 4 884 KNOB 2 554 CRIME 34 471 0 4 5 9 KNOB-CRIME
4 12 1 5 k 1 Short NA NA 33 RPFoil 1 k 755 6 885 FUSE 5 479 ADULT 25 526 0 4 5 9 FUSE-ADULT
4 12 1 6 k 1 Long 84 NA NA NewFoil 1 k 684 11 886 INSIGHT 22 329 CHAMPION 23 508 0 7 8 15 INSIGHT-CHAMPION
4 12 1 7 k 1 Short NA NA 39 RPFoil 1 k 864 6 887 BERRY 9 551 CIGAR 10 619 0 5 5 10 BERRY-CIGAR
4 12 1 8 j 2 Long NA NA 29 Target 1 j 910 5 888 GRAMMAR 4 392 MONSOON 3 498 0 7 7 14 GRAMMAR-MONSOON
4 12 1 9 j 1 Short NA NA 3 Target 1 j 777 2 889 THUMB 10 599 ADULT 25 526 0 5 5 10 THUMB-ADULT
4 12 1 10 j 2 Long NA NA 28 Target 1 j 1002 5 890 SLUMBER 3 500 HIGHWAY 40 581 0 7 7 14 SLUMBER-HIGHWAY
4 12 1 11 k 2 Long NA NA 62 RPFoil 1 k 807 9 891 DISTRESS 15 443 HIGHWAY 40 581 0 8 7 15 DISTRESS-HIGHWAY
4 12 1 12 j 1 Long NA NA 11 Target 1 j 897 3 892 NURSERY 13 542 TREASON 6 363 0 7 7 14 NURSERY-TREASON
4 12 1 13 k 2 Long NA NA 61 RPFoil 1 k 815 9 893 GRAMMAR 4 392 HIGHWAY 40 581 0 7 7 14 GRAMMAR-HIGHWAY
4 12 1 14 k 2 Long NA NA 58 RPFoil 1 k 1065 9 894 DISTRESS 15 443 MONSOON 3 498 0 8 7 15 DISTRESS-MONSOON
4 12 1 15 k 1 Short NA NA 35 RPFoil 1 k 1521 6 895 THUMB 10 599 DAIRY 19 537 0 5 5 10 THUMB-DAIRY
4 12 1 16 k 1 Short NA 103 NA NewFoil 1 k 675 10 896 HEAT 97 507 BELT 29 494 1 4 4 8 HEAT-BELT
4 12 1 17 j 2 Short NA NA 19 Target 1 j 938 4 897 GATE 37 545 WOOL 10 586 2 4 4 8 GATE-WOOL
4 12 1 18 j 1 Long NA NA 12 Target 1 j 753 3 898 EXPRESS 42 456 HYGIENE 3 459 0 7 7 14 EXPRESS-HYGIENE
4 12 1 19 j 1 Short NA NA 1 Target 1 j 1213 2 899 FUSE 5 479 DAIRY 19 537 0 4 5 9 FUSE-DAIRY
4 12 1 20 j 2 Long NA NA 30 Target 1 j 854 5 900 DISTRESS 15 443 WHISTLE 4 574 1 8 7 15 DISTRESS-WHISTLE
4 12 1 21 k 2 Short NA NA 55 RPFoil 1 k 1220 8 901 GATE 37 545 FLESH 52 567 5 4 5 9 GATE-FLESH
4 12 1 22 j 1 Long NA NA 10 Target 1 j 688 3 902 PATIENT 86 526 NECKLACE 3 606 0 7 8 15 PATIENT-NECKLACE
4 12 1 23 k 1 Short NA 7 NA NewFoil 1 k 629 10 903 CLOUD 28 595 STORE 74 506 3 5 5 10 CLOUD-STORE
4 12 1 24 j 2 Short NA NA 23 Target 1 j 971 4 904 GATE 37 545 JELLY 3 590 1 4 5 9 GATE-JELLY
4 12 1 25 k 1 Long 40 NA NA NewFoil 1 k 663 11 905 FOUNDER 10 339 INSTINCT 14 358 0 7 8 15 FOUNDER-INSTINCT
4 12 1 26 k 1 Long NA NA 44 RPFoil 1 k 812 7 906 EXPRESS 42 456 JUNCTION 7 502 0 7 8 15 EXPRESS-JUNCTION
4 12 1 27 k 1 Short NA 17 NA NewFoil 1 k 595 10 907 JOKE 22 483 TIRE 22 511 0 4 4 8 JOKE-TIRE
4 12 1 28 k 1 Short NA 2 NA NewFoil 1 k 669 10 908 PURSE 14 567 SUGAR 34 595 0 5 5 10 PURSE-SUGAR
4 12 1 29 k 2 Short NA NA 50 RPFoil 1 k 1112 8 909 KNOB 2 554 WOOL 10 586 0 4 4 8 KNOB-WOOL
4 12 1 30 k 1 Long 29 NA NA NewFoil 1 k 680 11 910 FRICTION 17 445 RAINBOW 4 604 0 8 7 15 FRICTION-RAINBOW
4 12 1 31 j 1 Long NA NA 16 Target 1 j 1000 3 911 FOREHEAD 16 596 WELCOME 50 470 1 8 7 15 FOREHEAD-WELCOME
4 12 1 32 k 1 Long NA NA 46 RPFoil 1 k 1020 7 912 MEDICINE 30 551 FLANNEL 4 520 0 8 7 15 MEDICINE-FLANNEL
4 12 1 33 k 2 Short NA NA 51 RPFoil 1 k 918 8 913 GATE 37 545 CRIME 34 471 1 4 5 9 GATE-CRIME
4 12 1 34 k 1 Short NA NA 37 RPFoil 1 k 739 6 914 TRAIL 31 525 RANCH 27 519 0 5 5 10 TRAIL-RANCH
4 12 1 35 j 1 Long NA NA 14 Target 1 j 858 3 915 MEDICINE 30 551 PASTURE 14 562 0 8 7 15 MEDICINE-PASTURE
4 12 1 36 j 2 Long NA NA 26 Target 1 j 804 5 916 DISTRESS 15 443 PACKAGE 20 529 0 8 7 15 DISTRESS-PACKAGE
4 12 1 37 k 2 Short NA NA 49 RPFoil 1 k 1045 8 917 FATE 33 343 FLESH 52 567 3 4 5 9 FATE-FLESH
4 12 1 38 j 1 Short NA NA 5 Target 1 j 1079 2 918 TRAIL 31 525 STEEL 45 534 1 5 5 10 TRAIL-STEEL
4 12 1 39 j 1 Long NA NA 13 Target 1 j 778 3 919 COLONEL 37 552 SPINACH 2 606 0 7 7 14 COLONEL-SPINACH
4 12 1 40 k 1 Long NA NA 47 RPFoil 1 k 822 7 920 FOUNTAIN 18 602 HYGIENE 3 459 0 8 7 15 FOUNTAIN-HYGIENE
4 12 1 41 k 1 Short NA NA 36 RPFoil 1 k 690 6 921 BUMP 5 476 STEEL 45 534 0 4 5 9 BUMP-STEEL
4 12 1 42 k 1 Short NA NA 38 RPFoil 1 k 1061 6 922 PALM 22 555 ACRE 9 464 0 4 4 8 PALM-ACRE
4 12 1 43 k 2 Long NA NA 64 RPFoil 1 k 1033 9 923 SLUMBER 3 500 MONSOON 3 498 0 7 7 14 SLUMBER-MONSOON
4 12 1 44 j 2 Short NA NA 17 Target 1 j 792 4 924 FATE 33 343 CRIME 34 471 3 4 5 9 FATE-CRIME
4 12 1 45 k 1 Long 43 NA NA NewFoil 1 k 598 11 925 BISCUIT 2 571 SLIPPER 3 595 0 7 7 14 BISCUIT-SLIPPER
4 12 1 46 k 2 Long NA NA 60 RPFoil 1 k 966 9 926 SLUMBER 3 500 WHISTLE 4 574 0 7 7 14 SLUMBER-WHISTLE
4 12 1 47 j 1 Long NA NA 9 Target 1 j 867 3 927 TRUMPET 7 628 JUNCTION 7 502 0 7 8 15 TRUMPET-JUNCTION
4 12 1 48 j 2 Long NA NA 31 Target 1 j 915 5 928 SPEAKER 49 549 HIGHWAY 40 581 0 7 7 14 SPEAKER-HIGHWAY
4 12 1 49 k 2 Short NA NA 53 RPFoil 1 k 1301 8 929 FATE 33 343 JELLY 3 590 2 4 5 9 FATE-JELLY
4 12 1 50 k 1 Short NA 4 NA NewFoil 1 k 691 10 930 TRAY 18 550 SACK 8 548 0 4 4 8 TRAY-SACK
4 12 1 51 j 1 Long NA NA 15 Target 1 j 950 3 931 FOUNTAIN 18 602 FLANNEL 4 520 0 8 7 15 FOUNTAIN-FLANNEL
4 12 1 52 k 2 Long NA NA 57 RPFoil 1 k 958 9 932 GRAMMAR 4 392 PACKAGE 20 529 0 7 7 14 GRAMMAR-PACKAGE
4 12 1 53 k 1 Short NA 76 NA NewFoil 1 k 669 10 933 WIRE 42 564 EVENT 81 334 0 4 5 9 WIRE-EVENT
4 12 1 54 j 1 Short NA NA 2 Target 1 j 918 2 934 MATCH 41 490 ACRE 9 464 0 5 4 9 MATCH-ACRE
4 12 1 55 k 2 Short NA NA 54 RPFoil 1 k 1550 8 935 KNOB 2 554 JELLY 3 590 0 4 5 9 KNOB-JELLY
4 12 1 56 k 1 Short NA 34 NA NewFoil 1 k 607 10 936 VASE 4 563 BEAR 57 572 4 4 4 8 VASE-BEAR
4 12 1 57 k 2 Long NA NA 59 RPFoil 1 k 1292 9 937 SPEAKER 49 549 WHISTLE 4 574 0 7 7 14 SPEAKER-WHISTLE
4 12 1 58 k 1 Long NA NA 45 RPFoil 1 k 808 7 938 COLONEL 37 552 NECKLACE 3 606 0 7 8 15 COLONEL-NECKLACE
4 12 1 59 k 1 Short NA NA 40 RPFoil 1 k 835 6 939 SWAMP 5 600 ALIEN 16 470 0 5 5 10 SWAMP-ALIEN
4 12 1 60 k 2 Short NA NA 52 RPFoil 1 k 713 8 940 SINK 23 599 CRIME 34 471 0 4 5 9 SINK-CRIME
4 12 1 61 j 1 Short NA NA 4 Target 1 j 858 2 941 BUMP 5 476 CIGAR 10 619 0 4 5 9 BUMP-CIGAR
4 12 1 62 j 2 Short NA NA 18 Target 1 j 1104 4 942 KNOB 2 554 FLESH 52 567 0 4 5 9 KNOB-FLESH
4 12 1 63 k 2 Short NA NA 56 RPFoil 1 k 1309 8 943 SINK 23 599 WOOL 10 586 0 4 4 8 SINK-WOOL
4 12 1 64 j 2 Short NA NA 24 Target 1 j 970 4 944 SINK 23 599 FLESH 52 567 0 4 5 9 SINK-FLESH
4 12 1 65 k 1 Long 97 NA NA NewFoil 1 k 759 11 945 RAILROAD 58 596 MESSAGE 64 438 0 8 7 15 RAILROAD-MESSAGE
4 12 1 66 k 1 Long NA NA 42 RPFoil 1 k 987 7 946 PATIENT 86 526 WELCOME 50 470 9 7 7 14 PATIENT-WELCOME
4 12 1 67 j 2 Short NA NA 20 Target 1 j 1620 4 947 SINK 23 599 JELLY 3 590 0 4 5 9 SINK-JELLY
4 12 1 68 k 1 Short NA 89 NA NewFoil 1 k 644 10 948 BASS 16 544 CLOCK 20 614 0 4 5 9 BASS-CLOCK
4 12 1 69 k 1 Long 4 NA NA NewFoil 1 k 680 11 949 BOREDOM 11 406 FINANCE 31 405 0 7 7 14 BOREDOM-FINANCE
4 12 1 70 j 1 Short NA NA 8 Target 1 j 755 2 950 SWAMP 5 600 RANCH 27 519 0 5 5 10 SWAMP-RANCH
4 12 1 71 k 1 Long 39 NA NA NewFoil 1 k 662 11 951 SESSION 80 394 TEACHER 80 575 0 7 7 14 SESSION-TEACHER
4 12 1 72 j 1 Short NA NA 6 Target 1 j 843 2 952 PALM 22 555 DESK 65 574 0 4 4 8 PALM-DESK
4 12 1 73 j 2 Long NA NA 27 Target 1 j 992 5 953 SPEAKER 49 549 MONSOON 3 498 0 7 7 14 SPEAKER-MONSOON
4 12 1 74 j 2 Long NA NA 25 Target 1 j 764 5 954 GRAMMAR 4 392 WHISTLE 4 574 0 7 7 14 GRAMMAR-WHISTLE
4 12 1 75 j 1 Short NA NA 7 Target 1 j 822 2 955 BERRY 9 551 ALIEN 16 470 0 5 5 10 BERRY-ALIEN
4 12 1 76 j 2 Short NA NA 21 Target 1 j 878 4 956 FATE 33 343 WOOL 10 586 0 4 4 8 FATE-WOOL
4 12 1 77 k 1 Short NA NA 34 RPFoil 1 k 1062 6 957 MATCH 41 490 DESK 65 574 1 5 4 9 MATCH-DESK
4 12 1 78 k 2 Long NA NA 63 RPFoil 1 k 972 9 958 SPEAKER 49 549 PACKAGE 20 529 0 7 7 14 SPEAKER-PACKAGE
4 12 1 79 j 2 Long NA NA 32 Target 0 k 2350 5 959 SLUMBER 3 500 PACKAGE 20 529 0 7 7 14 SLUMBER-PACKAGE
4 12 1 80 k 1 Long 33 NA NA NewFoil 1 k 692 11 960 EXCHANGE 70 394 OUTBREAK 2 359 0 8 8 16 EXCHANGE-OUTBREAK
4 13 1 1 j 2 Long NA NA 28 Target 1 j 1198 5 961 SLUMBER 3 500 HIGHWAY 40 581 0 7 7 14 SLUMBER-HIGHWAY
4 13 1 2 k 1 Short NA NA 35 RPFoil 1 k 871 6 962 THUMB 10 599 DAIRY 19 537 0 5 5 10 THUMB-DAIRY
4 13 1 3 k 2 Long NA NA 64 RPFoil 1 k 1081 9 963 SLUMBER 3 500 MONSOON 3 498 0 7 7 14 SLUMBER-MONSOON
4 13 1 4 j 2 Long NA NA 32 Target 1 j 1211 5 964 SLUMBER 3 500 PACKAGE 20 529 0 7 7 14 SLUMBER-PACKAGE
4 13 1 5 k 1 Short NA 16 NA NewFoil 1 k 654 10 965 HERO 52 483 WAVE 46 542 0 4 4 8 HERO-WAVE
4 13 1 6 k 1 Long 47 NA NA NewFoil 1 k 681 11 966 FOOTBALL 36 597 SURPRISE 51 451 0 8 8 16 FOOTBALL-SURPRISE
4 13 1 7 k 1 Short NA NA 39 RPFoil 1 k 827 6 967 BERRY 9 551 CIGAR 10 619 0 5 5 10 BERRY-CIGAR
4 13 1 8 k 1 Long 56 NA NA NewFoil 1 k 633 11 968 SURPLUS 27 346 GRAPHITE 5 443 0 7 8 15 SURPLUS-GRAPHITE
4 13 1 9 k 1 Short NA NA 36 RPFoil 1 k 736 6 969 BUMP 5 476 STEEL 45 534 0 4 5 9 BUMP-STEEL
4 13 1 10 j 1 Long NA NA 15 Target 1 j 1019 3 970 FOUNTAIN 18 602 FLANNEL 4 520 0 8 7 15 FOUNTAIN-FLANNEL
4 13 1 11 j 1 Short NA NA 2 Target 1 j 1681 2 971 MATCH 41 490 ACRE 9 464 0 5 4 9 MATCH-ACRE
4 13 1 12 j 2 Long NA NA 26 Target 1 j 922 5 972 DISTRESS 15 443 PACKAGE 20 529 0 8 7 15 DISTRESS-PACKAGE
4 13 1 13 k 2 Short NA NA 52 RPFoil 1 k 1133 8 973 SINK 23 599 CRIME 34 471 0 4 5 9 SINK-CRIME
4 13 1 14 j 2 Long NA NA 30 Target 1 j 733 5 974 DISTRESS 15 443 WHISTLE 4 574 1 8 7 15 DISTRESS-WHISTLE
4 13 1 15 k 1 Long NA NA 42 RPFoil 1 k 680 7 975 PATIENT 86 526 WELCOME 50 470 9 7 7 14 PATIENT-WELCOME
4 13 1 16 k 2 Long NA NA 58 RPFoil 1 k 869 9 976 DISTRESS 15 443 MONSOON 3 498 0 8 7 15 DISTRESS-MONSOON
4 13 1 17 j 2 Short NA NA 18 Target 1 j 984 4 977 KNOB 2 554 FLESH 52 567 0 4 5 9 KNOB-FLESH
4 13 1 18 k 1 Short NA 24 NA NewFoil 1 k 732 10 978 CURVE 45 520 VEIN 25 546 0 5 4 9 CURVE-VEIN
4 13 1 19 j 2 Short NA NA 22 Target 1 j 1184 4 979 KNOB 2 554 CRIME 34 471 0 4 5 9 KNOB-CRIME
4 13 1 20 j 1 Long NA NA 12 Target 1 j 808 3 980 EXPRESS 42 456 HYGIENE 3 459 0 7 7 14 EXPRESS-HYGIENE
4 13 1 21 k 1 Short NA 70 NA NewFoil 1 k 565 10 981 THIEF 8 529 VINE 4 564 0 5 4 9 THIEF-VINE
4 13 1 22 j 2 Short NA NA 20 Target 0 k 1044 4 982 SINK 23 599 JELLY 3 590 0 4 5 9 SINK-JELLY
4 13 1 23 k 2 Short NA NA 49 RPFoil 1 k 873 8 983 FATE 33 343 FLESH 52 567 3 4 5 9 FATE-FLESH
4 13 1 24 j 1 Short NA NA 4 Target 1 j 807 2 984 BUMP 5 476 CIGAR 10 619 0 4 5 9 BUMP-CIGAR
4 13 1 25 k 1 Long NA NA 47 RPFoil 1 k 804 7 985 FOUNTAIN 18 602 HYGIENE 3 459 0 8 7 15 FOUNTAIN-HYGIENE
4 13 1 26 k 1 Long 41 NA NA NewFoil 1 k 629 11 986 DAYLIGHT 15 575 JOURNAL 42 509 0 8 7 15 DAYLIGHT-JOURNAL
4 13 1 27 j 2 Long NA NA 27 Target 1 j 1019 5 987 SPEAKER 49 549 MONSOON 3 498 0 7 7 14 SPEAKER-MONSOON
4 13 1 28 k 1 Long 22 NA NA NewFoil 1 k 647 11 988 GESTURE 32 432 PLEASURE 62 511 6 7 8 15 GESTURE-PLEASURE
4 13 1 29 k 1 Short NA NA 40 RPFoil 1 k 1020 6 989 SWAMP 5 600 ALIEN 16 470 0 5 5 10 SWAMP-ALIEN
4 13 1 30 j 1 Short NA NA 5 Target 1 j 776 2 990 TRAIL 31 525 STEEL 45 534 1 5 5 10 TRAIL-STEEL
4 13 1 31 k 1 Long NA NA 48 RPFoil 1 k 1155 7 991 FOREHEAD 16 596 SPINACH 2 606 0 8 7 15 FOREHEAD-SPINACH
4 13 1 32 k 2 Long NA NA 61 RPFoil 1 k 889 9 992 GRAMMAR 4 392 HIGHWAY 40 581 0 7 7 14 GRAMMAR-HIGHWAY
4 13 1 33 k 2 Long NA NA 57 RPFoil 1 k 1230 9 993 GRAMMAR 4 392 PACKAGE 20 529 0 7 7 14 GRAMMAR-PACKAGE
4 13 1 34 k 1 Long 95 NA NA NewFoil 1 k 690 11 994 PARTNER 32 513 DRUNKARD 3 527 0 7 8 15 PARTNER-DRUNKARD
4 13 1 35 k 2 Short NA NA 51 RPFoil 1 k 921 8 995 GATE 37 545 CRIME 34 471 1 4 5 9 GATE-CRIME
4 13 1 36 k 2 Long NA NA 62 RPFoil 1 k 887 9 996 DISTRESS 15 443 HIGHWAY 40 581 0 8 7 15 DISTRESS-HIGHWAY
4 13 1 37 k 1 Long NA NA 41 RPFoil 1 k 871 7 997 TRUMPET 7 628 TREASON 6 363 0 7 7 14 TRUMPET-TREASON
4 13 1 38 k 2 Short NA NA 56 RPFoil 1 k 1332 8 998 SINK 23 599 WOOL 10 586 0 4 4 8 SINK-WOOL
4 13 1 39 j 2 Short NA NA 24 Target 1 j 906 4 999 SINK 23 599 FLESH 52 567 0 4 5 9 SINK-FLESH
4 13 1 40 k 1 Long NA NA 45 RPFoil 1 k 854 7 1000 COLONEL 37 552 NECKLACE 3 606 0 7 8 15 COLONEL-NECKLACE
4 13 1 41 k 1 Short NA 48 NA NewFoil 1 k 780 10 1001 CROW 2 578 FRAME 74 508 1 4 5 9 CROW-FRAME
4 13 1 42 j 1 Short NA NA 8 Target 1 j 1123 2 1002 SWAMP 5 600 RANCH 27 519 0 5 5 10 SWAMP-RANCH
4 13 1 43 j 1 Long NA NA 9 Target 1 j 943 3 1003 TRUMPET 7 628 JUNCTION 7 502 0 7 8 15 TRUMPET-JUNCTION
4 13 1 44 j 2 Short NA NA 17 Target 1 j 1048 4 1004 FATE 33 343 CRIME 34 471 3 4 5 9 FATE-CRIME
4 13 1 45 k 1 Short NA NA 34 RPFoil 1 k 751 6 1005 MATCH 41 490 DESK 65 574 1 5 4 9 MATCH-DESK
4 13 1 46 k 1 Long NA NA 46 RPFoil 1 k 1059 7 1006 MEDICINE 30 551 FLANNEL 4 520 0 8 7 15 MEDICINE-FLANNEL
4 13 1 47 j 2 Short NA NA 23 Target 1 j 1182 4 1007 GATE 37 545 JELLY 3 590 1 4 5 9 GATE-JELLY
4 13 1 48 k 1 Short NA 83 NA NewFoil 1 k 652 10 1008 HAIL 10 477 BRAIN 45 572 0 4 5 9 HAIL-BRAIN
4 13 1 49 j 1 Short NA NA 1 Target 1 j 791 2 1009 FUSE 5 479 DAIRY 19 537 0 4 5 9 FUSE-DAIRY
4 13 1 50 k 2 Short NA NA 55 RPFoil 1 k 2449 8 1010 GATE 37 545 FLESH 52 567 5 4 5 9 GATE-FLESH
4 13 1 51 k 1 Short NA 68 NA NewFoil 1 k 594 10 1011 HIVE 2 554 SOAP 22 600 0 4 4 8 HIVE-SOAP
4 13 1 52 j 1 Long NA NA 13 Target 1 j 931 3 1012 COLONEL 37 552 SPINACH 2 606 0 7 7 14 COLONEL-SPINACH
